id,ExpID,PatternID,DeviceID,LineNo_ATT,DesRoll,Roll,DesPitch,Pitch,DesYaw,Yaw,ErrRP,ErrYaw,ThI,ABst,ThH,DAlt,TAlt,DCRt,CRt,VDop,HAcc,VAcc,SAcc,Delta,Status,GMS,NSats,Alt.1,Spd,GCrs,GyrX,GyrY,GyrZ,AccX,AccY,AccZ,AccZ_2,MagX,MagY,MagZ,MagZ_2,C1,C2,C3,Lat,Lng
0,6,2,F450,14206,-2.52,-0.74,-2.3,-1.55,359.96,2.12,0.1,0.03,0.5558759,0.000246942,0.4973755,-0.2963573,1.502355,-56,-55,1.12,0.58,0.96,0.21,200,4,554817200,14,215.19,0.391,187.202,0.07803127,-0.03241294,-0.2263289,0.2266904,-0.06597171,-10.82373,-10.88622,382,-12,-200,-275,1536,1578,1719,-6.5571579,106.7339642
1,6,2,F450,14216,-2.64,0.28,-2.95,-1.02,359.96,359.69,0.12,0.02,0.5409341999999999,8.55e-05,0.4973755,-0.3963573,1.403758,-56,-56,1.12,0.58,0.95,0.25,200,4,554817400,14,215.1,0.242,187.202,0.04831148,-0.1232456,-0.17645120000000006,1.294079,-0.2425242,-9.683836,-9.850414,385,4,-193,-277,1581,1553,1697,-6.5571584000000005,106.73396409999998
2,6,2,F450,14226,-2.8,-0.42,-3.46,-1.85,359.96,357.66,0.11,0.02,0.5404621000000001,0.000329435,0.4973755,-0.4963568,1.31411,-57,-51,1.12,0.58,0.96,0.27,200,4,554817600,14,215.07,0.016,187.202,-0.1163844,-0.149578,-0.1164267,0.966332,-0.03342856,-10.37003,-9.909281,387,12,-196,-278,1601,1540,1690,-6.557158599999998,106.73396409999998
3,6,2,F450,14236,-2.63,-1.31,-3.7,-3.97,359.96,356.25,0.11,0.02,0.509038,0.0013632770000000002,0.4973755,-0.5963573,1.229523,-59,-54,1.12,0.58,0.96,0.23,200,4,554817800,14,215.02,0.236,215.8407,0.15380339999999998,-0.05865728,-0.06477766,0.1234012,-0.2633449,-9.46225,-9.291891,373,27,-207,-290,1604,1529,1712,-6.5571587,106.7339639
4,6,2,F450,14246,-2.38,-0.74,-2.95,-4.04,359.96,355.72,0.1,0.03,0.4710219,0.001110762,0.4973755,-0.6963566999999999,1.153755,-61,-59,1.12,0.58,0.96,0.25,200,4,554818000,14,214.98,0.098,215.8407,0.14914660000000002,0.2159107,-0.01391621,-0.06684854,-0.3572804,-10.60532,-9.741194,370,41,-215,-296,1594,1520,1682,-6.557158599999998,106.7339636
5,6,2,F450,14256,-2.32,0.31,-1.61,-1.65,359.96,355.55,0.11,0.03,0.5178912999999999,0.00022918,0.4973755,-0.7963566999999999,1.079534,-64,-51,1.12,0.58,0.96,0.27,200,4,554818200,14,214.86,0.15,215.8407,0.06097673,0.2332842,-0.01864955,0.4955914000000001,0.15081270000000002,-9.391306,-9.255808,376,36,-208,-277,1524,1582,1673,-6.5571584000000005,106.7339635
6,6,2,F450,14266,-2.49,0.34,-0.9,0.36,359.96,355.23,0.1,0.04,0.5438208999999999,2.14e-05,0.4973755,-0.8963572,0.9957234,-65,-50,1.12,0.58,0.96,0.25,200,4,554818400,14,214.76,0.219,215.8407,-0.00137248,-0.09433178,-0.0945072,0.1705894,0.01546195,-8.991995,-8.705786,390,36,-195,-269,1609,1495,1686,-6.5571579,106.7339636
7,6,2,F450,14276,-2.8,-0.68,-0.78,-0.65,359.96,354.1,0.08,0.03,0.5253313000000001,7.5e-05,0.4973755,-0.9963571,0.8939079,-65,-57,1.12,0.58,0.96,0.25,200,4,554818600,14,214.7,0.257,215.8407,-0.193125,-0.131751,-0.1822755,-0.1553359,-0.3794399000000001,-9.488565,-9.301373,389,41,-187,-270,1602,1529,1692,-6.5571574,106.7339635
8,6,2,F450,14286,-2.69,-2.3,-0.58,-1.15,359.96,351.84,0.07,0.03,0.5162571,0.000503302,0.4973755,-1.096357,0.7809047,-64,-60,1.12,0.58,0.96,0.24,200,4,554818800,14,214.61,0.376,255.6235,0.112965,0.008258373000000001,-0.3034598,0.4149373,-0.02979001,-10.12624,-9.284461,374,59,-198,-278,1571,1584,1671,-6.5571571,106.7339629
9,6,2,F450,14296,-1.94,-1.82,-0.05,-1.16,359.96,348.26,0.08,0.02,0.5084707,0.000448346,0.4973755,-1.196357,0.6685651999999999,-62,-63,1.12,0.58,0.96,0.27,200,4,554819000,14,214.48,0.06900001,255.6235,0.09114964,0.03049966,-0.395925,-0.5840380999999999,-0.9562266,-9.239492,-8.875191000000003,384,82,-191,-268,1624,1568,1653,-6.557156900000002,106.7339624
10,6,2,F450,14306,-0.83,-1.0,0.68,-0.37,359.96,344.18,0.09,0.02,0.4995492,9.73e-05,0.4973755,-1.296357,0.5674034,-62,-63,1.12,0.58,0.96,0.2,200,4,554819200,14,214.48,0.255,255.6235,0.1237792,0.158555,-0.3494527,-0.3023494,-1.044425,-10.96686,-10.26155,370,102,-196,-269,1651,1558,1643,-6.557156699999998,106.7339623
11,6,2,F450,14316,-0.02,0.78,1.01,1.3,359.96,340.58,0.1,0.02,0.5002907,0.000163615,0.4973755,-1.396356,0.4682769,-63,-59,1.12,0.58,0.96,0.27,200,4,554819400,14,214.43,0.023,255.6235,0.130654,0.1259152,-0.2617255,-0.17303110000000002,-0.4847839,-10.09998,-9.164631,370,127,-189,-258,1639,1579,1608,-6.557156699999998,106.7339618
12,6,2,F450,14326,-0.18,0.85,0.43,2.55,359.96,337.86,0.1,0.01,0.5082703,0.000570476,0.4973755,-1.496356,0.3812168,-64,-57,1.12,0.58,0.96,0.27,200,4,554819600,14,214.4,0.314,172.6786,-0.1606221,-0.02948803,-0.2107223,-0.09379953,0.3909745,-10.46846,-9.92429,366,136,-176,-255,1631,1590,1596,-6.557156699999998,106.733962
13,6,2,F450,14336,-0.48,-1.41,-0.7,1.42,359.96,335.53,0.1,0.02,0.50971,0.000261366,0.4973755,-1.596356,0.291056,-65,-61,1.12,0.57,0.96,0.28,200,4,554819800,14,214.3,0.087,172.6786,-0.1626994,-0.2764475,-0.1727413,-0.1407914,0.1207829,-9.975992,-9.947937,363,164,-168,-265,1601,1629,1646,-6.5571568,106.7339624
14,6,2,F450,14346,0.03,-2.73,-1.76,-1.3,359.96,333.62,0.1,0.01,0.4991439,0.000705808,0.4973755,-1.6963549999999998,0.198413,-66,-65,1.12,0.57,0.96,0.29,200,4,554820000,14,214.26,0.098,172.6786,0.02466665,-0.09349316,-0.1385347,-0.3186394,0.09455258,-11.60596,-11.02401,350,176,-180,-258,1627,1609,1630,-6.5571568,106.7339625
15,6,2,F450,14356,0.97,-1.53,-2.26,-1.51,358.56,331.85,0.11,0.02,0.4944251,0.000380695,0.4973755,-1.796356,0.1107215,-67,-61,1.12,0.57,0.96,0.26,200,4,554820200,14,214.15,0.249,155.4587,0.14793620000000002,0.1706385,-0.15767179999999995,-0.34121490000000004,-0.7935728,-10.35496,-10.95245,345,198,-195,-276,1623,1610,1614,-6.557156900000002,106.7339626
16,6,2,F450,14366,1.56,0.88,-2.54,0.06,356.64,330.03,0.09,0.03,0.4710094,5.350000000000001e-05,0.4973755,-1.896356,0.025858,-69,-64,1.12,0.57,0.96,0.24,200,4,554820400,14,214.05,0.187,213.3477,0.06879473,-0.09386605,-0.1649944,0.1967105,-0.1530499,-10.2493,-9.551751,336,196,-195,-275,1606,1614,1585,-6.557157000000001,106.7339624
17,6,2,F450,14376,1.43,0.24,-3.29,-1.4,354.89,328.22,0.09,0.03,0.4705163,0.000140399,0.4973755,-1.996356,-0.06675236,-69,-62,1.35,0.57,0.96,0.27,200,4,554820600,13,213.95,0.17800000000000002,213.3477,-0.2455156,-0.241744,-0.144679,-0.268108,0.512737,-11.13923,-10.38711,329,203,-203,-275,1616,1595,1604,-6.5571568,106.7339622
18,6,2,F450,14386,1.46,-0.58,-3.86,-3.4,353.23,326.55,0.12,0.02,0.4623565,0.000836611,0.4973755,-2.096356,-0.169729,-69,-63,1.35,0.57,0.96,0.26,200,4,554820800,13,213.83,0.262,213.3477,0.2213629,-0.04616201,-0.09742271,0.08560544,0.5579473,-10.44617,-10.14977,316,213,-204,-283,1618,1598,1610,-6.5571565000000005,106.733962
19,6,2,F450,14396,1.71,1.65,-3.19,-3.1,352.44,325.77,0.11,0.03,0.4317286,0.000802815,0.4973755,-2.196356,-0.2743068,-69,-63,1.35,0.57,0.96,0.12,200,4,554821000,13,213.79,0.597,196.918,-0.9584464,0.9728405,0.13100209999999998,-2.673793,-3.141088,-13.08075,-12.29986,309,228,-207,-288,1604,1589,1582,-6.5571568,106.7339617
20,6,2,F450,14406,5.0,-3.53,-5.37,0.28,352.31,326.13,0.09,0.03,0.3197362,0.00054878,0.4973755,-2.2963560000000003,-0.2878116,-77,-20,1.35,0.57,0.96,0.31,200,4,554821200,13,213.83,0.009000001,196.918,-0.1003825,0.1819781,-0.4858782999999999,0.07600139,1.794605,-8.091498,-7.810792,317,229,-175,-220,1427,1466,1512,-6.5571573,106.7339614
21,6,2,F450,14416,5.15,-3.83,-3.67,-0.88,347.65,321.0,0.11,0.02,0.08262946,0.000192002,0.4973755,-2.396356,-0.2888485,-87,-7,1.35,0.57,0.96,0.29,200,4,554821400,13,213.82,0.006999999999999999,196.918,0.001490182,-0.02087847,0.1782475,-0.07013498,0.5157537,-10.39061,-9.918512,314,253,-178,-220,1300,1444,1339,-6.5571573,106.7339613
22,6,2,F450,14426,5.31,-3.72,-4.3,-0.87,347.55,322.43,0.14,0.03,-0.04740301,-0.000102993,0.4973755,-2.496356,-0.2881895,-97,-7,1.35,0.57,0.96,0.18,200,4,554821600,13,213.84,0.036000000000000004,196.918,-0.02555223,-0.09067018,-0.13550420000000002,0.4072241,0.5148050999999999,-9.729252,-9.261102,301,254,-185,-224,1187,1392,1366,-6.5571573,106.7339612
23,6,2,F450,14436,6.3,-3.82,-4.81,-1.03,347.55,321.76,0.12,0.03,-0.06014178,-0.000144277,0.4973755,-2.596356,-0.2889958,-107,-6,1.35,0.57,0.96,0.26,200,4,554821800,13,213.85,0.006999999999999999,196.918,-0.02991121,-0.03912415,0.08633193,0.05376457,0.07029548,-10.12426,-9.784952,304,265,-183,-221,1211,1333,1306,-6.5571573,106.733961
24,6,2,F450,14446,3.43,-3.71,-4.92,-0.99,347.55,321.69,0.1,0.03,-0.1050712,-0.000238925,0.4973755,-2.696356,-0.2917896,-117,-7,1.35,0.57,0.96,0.22,200,4,554822000,13,213.84,0.022,196.918,-0.1142254,-0.0140898,0.06620594,-0.7075213,0.3951143,-10.61609,-10.63809,297,250,-184,-213,1289,1209,1244,-6.5571574,106.7339608
25,6,2,F450,14456,1.11,-3.89,-4.92,-1.06,347.55,321.97,0.08,0.04,-0.1121546,-0.00028231700000000003,0.4973755,-2.796355,-0.2956906,-127,-7,1.35,0.56,0.96,0.25,200,4,554822200,13,213.85,0.025,196.918,0.09509183,0.00772508,-0.06489706,-0.2628625,-0.1102487,-10.32534,-9.471035,303,261,-183,-221,1187,1338,1299,-6.5571574,106.7339605
26,6,2,F450,14466,1.77,-3.66,-5.05,-1.1,347.55,321.98,0.07,0.04,-0.1423034,-0.00032387700000000003,0.4973755,-2.896355,-0.2979427,-137,-8,1.35,0.56,0.96,0.13,200,4,554822400,13,213.85,0.028,196.918,0.006914231999999999,0.007028621,-0.03827298,0.2642816,-0.00219462,-9.84604,-9.274338,294,265,-176,-221,1187,1327,1262,-6.5571575,106.7339601
27,6,2,F450,14476,2.02,-3.72,-5.11,-1.14,347.55,321.85,0.06,0.04,-0.16498239999999995,-0.000371084,0.4973755,-2.996355,-0.2958131,-147,-9,1.12,0.53,0.93,0.23,200,4,554892600,14,216.29,0.031,196.918,-0.1036637,-0.01976293,0.02019465,-0.3670782,1.08157,-10.32479,-10.16757,296,263,-180,-212,1190,1350,1299,-6.557156599999999,106.7339481
28,6,2,F450,14486,-3.63,-3.63,-1.68,-1.68,320.06,320.02,0.0,0.01,0.0,0.0,0.4973755,-2.174227,0.008176899,-152,-1,1.12,0.53,0.93,0.2,200,4,554892800,14,216.31,0.011,196.918,0.002462256,5.58e-05,-0.0031324240000000004,-0.1196563,0.3857348,-10.28675,-9.939358,300,255,-192,-206,1070,1070,1070,-6.557156699999998,106.733948
29,6,2,F450,14496,-3.63,-3.63,-1.68,-1.68,320.06,320.01,0.01,0.01,0.0,0.0,0.4973755,-2.174227,0.01311049,-152,-1,1.12,0.53,0.93,0.17,200,4,554893000,14,216.28,0.051,196.918,0.002114775,0.000435861,-0.002576386,-0.1152651,0.3869972,-10.26336,-9.85978,306,263,-195,-209,1070,1070,1070,-6.557156699999998,106.733948
30,6,2,F450,14506,-3.64,-3.63,-1.68,-1.68,320.06,320.01,0.01,0.01,0.0,0.0,0.4973755,-2.174227,0.01905785,-152,-1,1.12,0.53,0.93,0.2,201,4,554893200,14,216.29,0.035,196.918,0.001822056,0.00046141,-0.0030020840000000003,-0.1143898,0.3966238,-10.28026,-9.85166,302,258,-196,-209,1070,1070,1070,-6.557156599999999,106.7339479
31,6,2,F450,14516,-3.64,-3.64,-1.68,-1.68,320.06,320.01,0.01,0.01,0.0,0.0,0.4973755,-2.174227,0.02177272,-152,-1,1.12,0.53,0.93,0.23,200,4,554893400,14,216.28,0.039,196.918,0.001366682,0.0006690460000000001,-0.002419263,-0.1116319,0.4014151,-10.29211,-9.870441,299,256,-191,-208,1070,1070,1070,-6.557156599999999,106.7339478
32,6,2,F450,14526,-3.64,-3.64,-1.68,-1.68,320.06,320.01,0.01,0.01,0.0,0.0,0.4973755,-2.174227,0.02354155,-152,-1,1.12,0.53,0.93,0.2,199,4,554893600,14,216.28,0.028,196.918,0.001009315,0.0008757060000000001,-0.003760525,-0.1186914,0.3893324,-10.26332,-9.893817,297,257,-196,-209,1070,1070,1070,-6.557156599999999,106.7339476
33,6,2,F450,14536,-3.64,-3.64,-1.69,-1.69,320.05,320.0,0.01,0.01,0.0,0.0,0.4973755,-2.174227,0.02685223,-152,-1,1.12,0.53,0.93,0.21,201,4,554893800,14,216.27,0.034,196.918,0.002260544,0.00093702,-0.003691985,-0.11278889999999997,0.3954716,-10.26753,-9.863199,304,254,-198,-211,1070,1070,1070,-6.5571565000000005,106.7339476
34,6,2,F450,14546,-3.64,-3.64,-1.69,-1.69,320.05,320.0,0.01,0.0,0.0,0.0,0.4973755,-2.174227,0.02789221,-152,-1,1.12,0.53,0.93,0.23,199,4,554894000,14,216.29,0.015,196.918,0.001162192,0.000239275,-0.004094246,-0.1102055,0.3880933,-10.28256,-9.727473,304,252,-194,-207,1070,1070,1070,-6.5571565000000005,106.73394740000002
35,6,2,F450,14556,-3.65,-3.65,-1.69,-1.69,320.04,319.99,0.01,0.01,0.0,0.0,0.4973755,-2.174227,0.03060804,-152,-1,1.12,0.53,0.93,0.18,201,4,554894200,14,216.28,0.036000000000000004,196.918,0.001829049,0.0006727160000000001,-0.00359833,-0.09779623,0.385447,-10.27418,-9.912562,294,260,-194,-211,1070,1070,1070,-6.5571565000000005,106.7339473
36,6,2,F450,14566,-3.65,-3.65,-1.69,-1.69,320.04,319.99,0.01,0.01,0.0,0.0,0.4973755,-2.174227,0.033438300000000004,-152,-1,1.12,0.53,0.93,0.22,200,4,554894400,14,216.25,0.023,196.918,0.002333672,0.000437194,-0.003344754,-0.09782858,0.3931743,-10.27188,-9.876949,305,257,-198,-211,1070,1070,1070,-6.5571565000000005,106.7339473
37,6,2,F450,14576,-3.65,-3.65,-1.69,-1.7,320.04,319.99,0.01,0.01,0.0,0.0,0.4973755,-2.112118,0.0362793,-152,-1,1.12,0.53,0.93,0.2,200,4,554894600,14,216.22,0.013,196.918,0.001777735,0.000152351,-0.002348411,-0.1038405,0.3815727,-10.27864,-9.920999,296,255,-199,-205,1070,1070,1070,-6.5571564,106.7339473
38,6,2,F450,14586,-4.32,-3.65,-1.23,-1.7,320.04,319.98,0.01,0.01,0.01425159,3.54e-05,0.4914693,-2.089633,0.03983245,1,0,1.12,0.53,0.93,0.21,200,4,554894800,14,216.22,0.024,196.918,0.0015007310000000002,0.001046266,-0.002674225,-0.09942175,0.3855134,-10.29143,-9.905661,304,258,-198,-209,1107,1107,1107,-6.5571565000000005,106.7339472
39,6,2,F450,14596,-4.45,-3.65,-0.91,-1.7,320.04,319.98,0.01,0.01,0.06208925,0.000154421,0.4821343,-1.9771330000000005,0.04354057,12,-1,1.12,0.53,0.93,0.19,200,4,554895000,14,216.19,0.044,196.918,-0.004304606,-0.003175475,0.01954761,-0.06072732,0.4369355,-10.25794,-9.692201,299,256,-191,-214,1156,1156,1156,-6.5571564,106.7339472
40,6,2,F450,14606,-4.45,-3.68,-0.71,-1.67,320.04,319.97,0.01,0.01,0.1457066,0.000361979,0.4740172,-1.7919439999999998,0.04907689,30,0,1.12,0.53,0.93,0.13,200,4,554895200,14,216.17,0.04,196.918,0.005273468000000001,-0.008122846,0.03270832,-0.3495009,0.5138775,-10.37679,-10.28381,295,256,-190,-217,1352,1328,1338,-6.5571564,106.7339472
41,6,2,F450,14616,-4.39,-3.7,-0.55,-1.67,320.04,320.0,0.01,0.01,0.2278125,0.000576198,0.4676448,-1.593625,0.05333672,50,-1,1.12,0.53,0.93,0.21,200,4,554895400,14,216.13,0.019,196.918,0.05833931,0.01566322,0.04733711,-0.7526104,0.06137433,-10.34676,-9.648741,307,260,-190,-237,1419,1391,1395,-6.5571565000000005,106.7339472
42,6,2,F450,14626,-4.33,-3.81,-0.36,-1.64,320.04,320.32,0.01,0.01,0.3553857,0.000874043,0.4633509,-1.395012,0.06117091,69,-1,1.12,0.53,0.93,0.18,200,4,554895600,14,216.11,0.006999999999999999,196.918,-0.02816929,-0.04146395,0.02693768,0.08262080000000001,0.6429114,-10.43318,-10.25681,302,257,-189,-245,1509,1465,1490,-6.5571564,106.7339472
43,6,2,F450,14636,-4.26,-3.9,-0.18,-1.61,320.04,320.64,0.01,0.01,0.5051126,0.001270235,0.4614668,-1.196727,0.07215629,87,2,1.12,0.53,0.93,0.17,200,4,554895800,14,216.1,0.08800001,196.918,0.02562694,0.1276004,0.08078407,-0.2219236,0.9442525,-10.56422,-10.75491,307,254,-187,-250,1581,1560,1590,-6.5571564,106.7339472
44,6,2,F450,14646,-4.31,-1.65,-0.18,0.69,320.04,321.75,0.01,0.02,0.5238545,0.000215828,0.4618548,-0.9857739,0.09711299,106,22,1.12,0.53,0.92,0.2,200,4,554896000,14,216.11,0.172,187.1123,0.12858540000000002,0.1188986,0.2933343,-0.3111618,0.06691533,-13.67072,-13.37455,308,254,-187,-265,1646,1582,1573,-6.5571565000000005,106.7339476
45,6,2,F450,14656,-5.04,-0.1,-1.53,1.74,320.04,325.85,0.02,0.03,0.5393831,0.000269353,0.462809,-0.7190167,0.1861418,121,51,1.12,0.52,0.92,0.22,200,4,554896200,14,216.19,0.116,187.1123,-0.218929,-0.1701313,0.4885393,-0.4716329000000001,0.9274688,-12.02892,-11.24845,330,226,-193,-262,1590,1594,1657,-6.557156699999998,106.7339477
46,6,2,F450,14666,-6.46,-2.69,-3.77,-0.16,320.04,331.84,0.02,0.04,0.5986406999999999,0.0006041530000000001,0.4629819000000001,-0.3913547,0.33465900000000004,135,86,1.12,0.52,0.92,0.19,200,4,554896400,14,216.26,0.472,125.9704,-0.03084278,-0.2482475,0.5630319,-0.3737013,-0.002783972,-10.85645,-10.98636,347,204,-190,-278,1598,1572,1665,-6.5571568,106.73394840000002
47,6,2,F450,14676,-7.03,-3.87,-5.29,-1.89,320.04,338.67,0.03,0.05,0.5705438,0.00168705,0.4629819000000001,-0.0146376,0.5333158,148,98,1.12,0.52,0.92,0.22,200,4,554896600,14,216.39,0.374,132.1133,0.07379853,-0.1537471,0.5390288000000001,0.30652490000000004,-0.631637,-11.03819,-11.2626,353,173,-188,-284,1599,1560,1723,-6.5571572,106.7339492
48,6,2,F450,14686,-6.83,-3.63,-5.77,-1.2,320.04,345.18,0.06,0.05,0.5825741,0.001303196,0.4629819000000001,0.4159407,0.7739456,160,120,1.12,0.52,0.92,0.21,200,4,554896800,14,216.56,0.531,164.1882,-0.004217196,0.2177513,0.5543602,-0.7690878999999999,-0.1710429,-11.3909,-9.716796,367,122,-197,-283,1602,1544,1722,-6.5571578,106.7339496
49,6,2,F450,14696,-7.13,-4.16,-6.17,-0.87,324.44,350.74,0.06,0.05,0.5888956,0.0015621189999999998,0.4629819000000001,0.9102211,1.065392,172,146,1.12,0.52,0.91,0.23,200,4,554897000,14,216.89,0.373,166.9069,0.08399317,-0.1674619,0.3545365,0.08993269,0.16573110000000002,-10.6375,-10.15201,386,90,-195,-277,1593,1551,1731,-6.5571584000000005,106.7339496
50,6,2,F450,14706,-6.84,-4.45,-7.03,-2.56,328.2,354.58,0.07,0.05,0.5776668,0.002370715,0.4629819000000001,1.410212,1.392177,182,162,1.12,0.52,0.91,0.25,200,4,554897200,14,217.19,0.331,166.2197,0.04712659,-0.21828470000000005,0.2277366,0.2590132,-0.4646757,-10.78599,-11.52975,383,61,-207,-280,1619,1529,1718,-6.557158900000001,106.7339498
51,6,2,F450,14716,-5.87,-4.9,-7.68,-3.92,330.45,356.91,0.07,0.04,0.5377208,0.003181517,0.4629819000000001,1.910203,1.7562060000000002,189,182,1.12,0.52,0.91,0.28,200,4,554897400,14,217.55,0.411,196.2127,-0.1319409,-0.12071760000000002,0.14405929999999995,-0.1084687,0.6521608,-11.43681,-12.22862,374,29,-207,-288,1622,1518,1704,-6.5571595,106.7339496
52,6,2,F450,14726,-4.66,-4.98,-7.44,-5.08,331.82,358.46,0.07,0.03,0.5641503000000001,0.004319906,0.4629819000000001,2.410194,2.143367,195,192,1.12,0.53,0.92,0.28,200,4,554897600,14,217.88,0.309,207.3973,0.06709205,-0.01674034,0.10304389999999998,0.07682192,0.6461334,-10.76499,-10.01302,372,24,-218,-294,1605,1538,1725,-6.5571600000000005,106.7339492
53,6,2,F450,14736,-3.49,-3.72,-6.46,-3.91,332.9,359.5,0.07,0.03,0.5426615,0.002348244,0.4629819000000001,2.910184,2.53245,201,199,1.12,0.53,0.92,0.26,200,4,554897800,14,218.23,0.14300000000000002,207.3973,0.07323773,0.04089368,0.06459072,0.5305814999999999,0.3020053,-10.5301,-9.405555,370,13,-227,-288,1611,1521,1691,-6.5571602,106.7339493
54,6,2,F450,14746,-2.03,-2.99,-5.78,-4.14,333.63,0.25,0.07,0.02,0.5649856,0.002359033,0.4629819000000001,3.410195,2.918575,206,206,1.12,0.53,0.92,0.27,200,4,554898000,14,218.52,0.425,237.7723,0.06890253,0.06162687,0.02131674,0.4293996,-0.6974412,-11.04603,-10.98126,367,5,-228,-289,1618,1512,1712,-6.557160499999998,106.7339492
55,6,2,F450,14756,-0.88,-1.5,-5.38,-2.59,335.15,1.7,0.07,0.03,0.5577591,0.000805795,0.4629819000000001,3.910211,3.3146440000000004,211,213,1.12,0.53,0.91,0.25,220,4,554898200,14,218.87,0.363,241.3336,0.2093428,0.1643808,0.1177745,0.310854,-0.1588546,-8.479017,-8.346467,377,2,-224,-285,1555,1581,1688,-6.557160700000002,106.7339489
56,6,2,F450,14766,-0.94,-0.46,-5.32,-1.07,336.21,2.84,0.08,0.03,0.5794704,0.000120282,0.4629819000000001,4.4102260000000015,3.718198,216,211,1.12,0.53,0.92,0.26,180,4,554898400,14,219.26,0.377,241.1558,-0.1961715,0.09725261,0.07746762,-0.5126619000000001,0.01960978,-10.75937,-10.10205,390,-11,-208,-273,1542,1603,1712,-6.5571609,106.7339487
57,6,2,F450,14776,-1.11,-2.48,-6.68,-1.52,337.25,3.76,0.07,0.02,0.5851699,0.000810385,0.4629819000000001,4.910241,4.123338,220,218,1.12,0.53,0.92,0.26,200,4,554898600,14,219.62,0.419,240.0135,-0.2994234000000001,-0.29461740000000003,0.07842194,0.4398551,0.6664213000000001,-9.698141,-10.35866,379,-22,-202,-275,1573,1577,1724,-6.557161200000001,106.73394840000002
58,6,2,F450,14786,-0.18,-3.09,-8.05,-3.71,338.06,4.68,0.06,0.02,0.5831485,0.002120078,0.4629819000000001,5.410256,4.5484300000000015,223,223,1.12,0.53,0.91,0.25,200,4,554898800,14,219.98,0.539,244.2442,0.03954566,-0.3094716,0.1287615,-0.1618268,-0.9284166,-9.9037,-10.36599,382,-17,-210,-287,1587,1552,1713,-6.5571614,106.733948
59,6,2,F450,14796,1.71,-3.76,-8.3,-6.11,339.68,6.49,0.05,0.02,0.5923007,0.004693091,0.4629819000000001,5.910272,4.993213,226,229,1.12,0.53,0.91,0.24,200,4,554899000,14,220.34,0.6829999999999999,254.0213,-0.2104982,-0.1926733,0.15920589999999998,-0.4264208,-0.7783518,-9.664242,-10.13536,363,-29,-234,-298,1549,1572,1736,-6.5571617,106.7339473
60,6,2,F450,14806,5.1,-5.36,-7.25,-7.07,341.49,8.23,0.04,0.02,0.5882288,0.007143736,0.4629819000000001,6.408057,5.430136,228,218,1.12,0.53,0.91,0.23,220,4,554899200,14,220.68,0.737,264.3983,0.1881128,0.04435626,0.09508438,-1.166758,-0.2039158,-9.547464,-9.478277,355,-25,-241,-314,1557,1607,1773,-6.5571618,106.7339462
61,6,2,F450,14816,10.03,-1.85,-6.03,-6.31,342.69,9.48,0.04,0.03,0.6086884,0.003976583,0.4629819000000001,6.849117999999999,5.847847,229,218,1.12,0.53,0.91,0.24,180,4,554899400,14,221.02,0.804,274.7515,0.6400414000000001,-0.05145191,0.002309164,0.151091,-0.6835974,-9.833208,-9.533749,359,-42,-242,-314,1556,1611,1760,-6.5571615,106.733945
62,6,2,F450,14826,14.05,4.6,-4.74,-6.04,343.13,10.07,0.04,0.04,0.6096908000000001,0.005327344,0.4629819000000001,7.210083,6.261752,226,221,1.12,0.53,0.91,0.23,200,4,554899600,14,221.36,0.7270001,279.8457,0.4779105,-0.03898942,0.06248216,-0.1068396,-0.5943930000000001,-11.53501,-9.052157,353,-69,-238,-294,1558,1609,1757,-6.557161099999999,106.7339439
63,6,2,F450,14836,15.31,9.61,-3.22,-7.02,343.69,10.39,0.04,0.04,0.5965608,0.01278543,0.4629819000000001,7.490921000000001,6.671542,221,214,1.12,0.53,0.9,0.23,200,4,554899800,14,221.75,0.481,283.7067,0.1333406,0.2291513,0.0344441,-0.3452265,-1.525761,-11.29074,-9.729415,346,-99,-225,-295,1579,1592,1752,-6.557160700000002,106.7339433
64,6,2,F450,14846,14.3,9.22,-0.97,-6.24,343.88,9.91,0.04,0.03,0.5500203,0.01070374,0.4629819000000001,7.691589,7.0798869999999985,211,214,1.12,0.53,0.9,0.22,200,4,554900000,14,222.14,0.431,297.8983,-0.2886887,0.046156,-0.1065786,-0.1686496,-1.618054,-9.094359,-8.526387,352,-113,-222,-288,1571,1573,1740,-6.5571601,106.7339429
65,6,2,F450,14856,13.21,6.69,1.37,-5.77,343.88,8.3,0.04,0.02,0.51335,0.005984306,0.4629819000000001,7.814425,7.485144,197,211,1.12,0.53,0.9,0.22,200,4,554900200,14,222.49,0.207,302.5383,-0.03413302,0.2315812,-0.1660537,-0.03921952,-0.7806236999999999,-10.23227,-9.461475,354,-91,-218,-292,1564,1547,1735,-6.5571595999999985,106.7339429
66,6,2,F450,14866,12.83,7.48,2.83,-1.54,343.88,6.8,0.04,0.01,0.4371192,0.003912121,0.4629819000000001,7.851707000000001,7.88513,178,199,1.12,0.53,0.89,0.23,200,4,554900400,14,222.88,0.07600001,302.5383,0.1271972,0.3123484,-0.28383200000000003,-0.1591566,-1.035072,-9.198347,-9.389017,362,-79,-220,-270,1457,1592,1661,-6.5571594,106.733943
67,6,2,F450,14876,12.13,8.02,2.62,1.9,343.88,4.02,0.05,0.01,0.469537,0.004991531,0.4629819000000001,7.851707000000001,8.267163,155,190,1.12,0.53,0.89,0.23,200,4,554900600,14,223.14,0.146,302.5383,-0.0014408829999999998,-0.14986660000000002,-0.2977732,0.3494365,-0.5077710999999999,-7.969246000000001,-8.011614999999999,397,-67,-183,-235,1490,1535,1646,-6.5571592,106.7339435
68,6,2,F450,14886,10.66,7.61,0.91,-0.31,343.88,0.3,0.04,0.02,0.4106963,0.003618598,0.4629819000000001,7.851707000000001,8.618348,131,159,1.12,0.53,0.89,0.22,200,4,554900800,14,223.35,0.245,224.5841,-0.3157632,-0.4095854,-0.3003978,-0.07615074,-0.8712119,-8.483312,-8.813583,391,-46,-182,-235,1455,1541,1656,-6.5571593,106.7339441
69,6,2,F450,14896,9.07,5.29,-0.51,-2.63,343.88,356.45,0.04,0.02,0.3890987,0.002176762,0.4629819000000001,7.851707000000001,8.926628,105,135,1.12,0.53,0.89,0.2,200,4,554901000,14,223.51,0.408,162.1349,-0.008770339,-0.1898996,-0.32366290000000003,-0.2785616,-0.8976324,-7.628641,-7.334952,374,-15,-211,-264,1496,1479,1647,-6.5571598,106.7339447
70,6,2,F450,14906,7.86,4.75,-1.43,-2.8,343.88,352.95,0.05,0.02,0.4271928,0.001967818,0.4629819000000001,7.851707000000001,9.171756,81,99,1.12,0.53,0.89,0.16,200,4,554901200,14,223.56,0.45,157.005,-0.01795166,-0.13658270000000006,-0.2477044,0.8538710999999999,-0.4350667,-7.829155,-8.271486999999999,372,12,-224,-272,1480,1510,1618,-6.557160400000001,106.7339453
71,6,2,F450,14916,7.21,4.49,-2.37,-3.6,343.88,350.23,0.06,0.01,0.4586353,0.002399564,0.4629819000000001,7.851707000000001,9.337724,64,76,1.12,0.53,0.89,0.21,200,4,554901400,14,223.68,0.229,157.005,-0.2285291,-0.1121404,-0.15973220000000002,-0.8305796,-1.712438,-9.187236,-9.21587,372,32,-226,-270,1523,1521,1664,-6.557160799999999,106.733946
72,6,2,F450,14926,6.52,1.92,-3.23,-5.04,343.88,348.73,0.05,0.01,0.4193368,0.001913726,0.4627973,7.851707000000001,9.4494,53,60,1.12,0.53,0.89,0.17,200,4,554901600,14,223.71,0.278,147.0754,-0.06539913,-0.2146443,-0.02666311,-0.111346,-0.2904563,-9.762381,-9.637231,361,62,-234,-289,1497,1555,1656,-6.557161099999999,106.73394640000002
73,6,2,F450,14936,6.7,1.06,-3.31,-6.59,343.88,348.58,0.06,0.01,0.4297647,0.00291571,0.4627973,7.851707000000001,9.539363,44,42,1.12,0.53,0.89,0.2,200,4,554901800,14,223.73,0.248,102.3904,0.16945120000000002,0.1853208,-0.006513875,-0.05733373,-1.024732,-11.08264,-8.548926,354,69,-239,-310,1511,1527,1649,-6.557161099999999,106.7339469
74,6,2,F450,14946,3.28,1.78,-6.34,-8.22,343.88,348.71,0.07,0.01,0.4598846,0.00494948,0.4627973,7.851569,9.615689,37,30,1.12,0.53,0.89,0.22,200,4,554902000,14,223.79,0.232,102.3904,-0.2212862,-0.2703981,0.01119872,-0.08138949,-0.5989345,-12.08854,-10.7542,346,65,-247,-296,1543,1526,1661,-6.557160700000002,106.7339473
75,6,2,F450,14956,1.66,-1.41,-4.29,-9.75,343.88,349.04,0.07,0.01,0.4555561,0.006677479,0.4627973,7.8511190000000015,9.672058,31,19,1.12,0.53,0.89,0.16,200,4,554902200,14,223.79,0.365,35.00356,-0.3712445,0.4904268,0.0753577,-0.4480219,-1.494338,-10.38171,-9.741105,328,76,-257,-324,1505,1573,1709,-6.5571602,106.7339473
76,6,2,F450,14966,1.69,-4.18,0.15,-3.62,343.88,349.95,0.08,0.02,0.4627822,0.002251565,0.4627975,7.850589999999999,9.721491,26,23,1.12,0.53,0.89,0.17,200,4,554902400,14,223.82,0.5870000000000001,341.61300000000006,0.3662573,0.6627403000000001,0.1048171,0.06502031,-0.137015,-9.519634,-9.504326,347,85,-241,-292,1494,1559,1673,-6.5571595,106.733947
77,6,2,F450,14976,3.2,0.1,2.54,3.19,343.88,351.19,0.08,0.03,0.4715267,0.0007046460000000001,0.4627003,7.850109,9.772277,21,17,1.12,0.53,0.89,0.2,200,4,554902600,14,223.84,0.5579999999999999,312.4561,0.3778485,0.2922537,0.08550265,-0.834868,-1.822261,-9.774766,-9.193765,390,76,-199,-244,1487,1552,1644,-6.557158900000001,106.7339463
78,6,2,F450,14986,4.37,3.68,1.41,4.85,343.88,352.77,0.07,0.03,0.4778911,0.002703935,0.4627889,7.85,9.817308,16,10,1.12,0.53,0.89,0.16,200,4,554902800,14,223.89,0.268,307.745,0.09418884,-0.3224172,0.1819433,-0.5065457,-0.4905364,-11.17559,-11.39519,403,49,-177,-240,1459,1587,1662,-6.557158599999998,106.733946
79,6,2,F450,14996,5.32,5.66,-1.75,0.04,343.88,354.68,0.07,0.03,0.4687035,0.002238691,0.4629672,7.85,9.844995,13,7,1.12,0.53,0.89,0.16,200,4,554903000,14,223.89,0.08000001,307.745,0.10975039999999997,-0.4224479,0.31066740000000004,-0.4681301,0.06835639,-11.81818,-10.76149,400,30,-179,-253,1455,1578,1687,-6.557158500000001,106.733946
80,6,2,F450,15006,5.88,7.05,-4.3,-4.64,343.88,357.39,0.07,0.03,0.4841687,0.005400896,0.4629672,7.85,9.864942999999998,11,4,1.12,0.53,0.89,0.22,200,4,554903200,14,223.87,0.067,307.745,0.009208594,-0.31295270000000003,0.2294459,0.4560886,-0.34449159999999995,-8.270042,-7.551102,372,-1,-222,-273,1491,1519,1691,-6.5571583,106.7339463
81,6,2,F450,15016,5.74,5.96,-5.56,-6.0,343.88,0.04,0.07,0.03,0.5248036,0.006085276999999999,0.4629672,7.85,9.883536,9,13,1.12,0.53,0.89,0.17,200,4,554903400,14,223.85,0.173,352.6768,-0.1526175,-0.05243966,0.2112991,-0.08567995,0.0015218089999999998,-10.42354,-9.364622,365,-24,-231,-293,1498,1498,1691,-6.557158199999999,106.7339469
82,6,2,F450,15026,5.6,3.58,-6.16,-6.45,343.88,2.54,0.05,0.03,0.4576394,0.003759056,0.4629672,7.85,9.911807,7,9,1.12,0.53,0.89,0.17,200,4,554903600,14,223.81,0.333,47.42805,-0.008708135,0.14542439999999998,0.2220308,-0.4321591,-1.029386,-9.084402,-9.162096,357,-31,-240,-296,1404,1543,1688,-6.5571579,106.7339477
83,6,2,F450,15036,6.02,4.4,-7.2,-5.05,343.88,4.97,0.05,0.03,0.4486425,0.003060251,0.4629672,7.85,9.941324,4,11,1.12,0.53,0.89,0.17,200,4,554903800,14,223.81,0.3670000000000001,55.45729,0.2052834,0.05765045,0.12778530000000002,-0.0889183,-0.3053426,-9.642772,-9.097978,355,-46,-236,-278,1402,1522,1671,-6.5571576,106.7339487
84,6,2,F450,15046,6.34,5.39,-8.9,-6.19,343.88,5.69,0.05,0.03,0.4519036,0.004730791,0.4629044,7.85,9.97792,1,5,1.12,0.53,0.89,0.13,220,4,554904000,14,223.77,0.458,46.72448,-0.1591595,-0.3019563,-0.04573978,-0.4768022,-0.8784934999999999,-10.41785,-9.058287,367,-62,-221,-277,1443,1491,1680,-6.5571572,106.7339495
85,6,2,F450,15056,6.6,3.19,-9.89,-9.49,343.88,4.42,0.04,0.02,0.4617822,0.007186115,0.4629044,7.85,10.00057,0,0,1.12,0.53,0.88,0.14,200,4,554904200,14,223.78,0.6970000000000001,47.72481,0.03543539,-0.01879952,-0.153231,-0.2699441,-0.9151064,-9.552679,-9.250187,349,-52,-246,-316,1471,1497,1706,-6.5571564,106.7339507
86,6,2,F450,15066,7.65,2.76,-9.36,-8.91,343.88,2.77,0.04,0.01,0.4326615,0.005831003,0.4629044,7.85,10.01224,-1,1,1.12,0.53,0.88,0.13,180,4,554904400,14,223.74,0.795,44.32469,0.2415424,0.06107815,-0.12849760000000002,-0.2763626,0.3111003,-10.43135,-10.3181,334,-33,-253,-316,1444,1528,1682,-6.5571554,106.733952
87,6,2,F450,15076,9.38,4.13,-8.26,-7.5,343.88,1.24,0.05,0.01,0.4371044,0.004943699,0.4629044,7.85,10.02118,-1,0,1.12,0.53,0.88,0.12,220,4,554904600,14,223.72,0.928,39.33879,0.2022858,0.01826922,-0.1423309,-0.7695247,-0.2560174,-10.77625,-9.538326,343,-37,-255,-310,1449,1520,1682,-6.5571542,106.7339533
88,6,2,F450,15086,10.71,6.29,-7.47,-6.9,345.22,359.82,0.05,0.01,0.4275241,0.005580127,0.4629044,7.85,10.03176,-1,-1,1.12,0.53,0.88,0.16,180,4,554904800,14,223.73,1.018,42.31792,0.1965286,0.1088716,-0.07695339,0.03588828,-1.034083,-10.12471,-9.130838,358,-26,-253,-303,1462,1529,1668,-6.557152900000001,106.7339549
89,6,2,F450,15096,11.3,8.0,-7.16,-5.72,355.25,359.62,0.04,0.01,0.4411455,0.006395191,0.4629044,7.85,10.04034,-2,0,1.12,0.53,0.88,0.15,200,4,554905000,14,223.71,1.352,44.24532,0.0718639,0.1118637,0.1229532,-0.1856072,-0.2320384,-10.5717,-10.96472,362,-36,-239,-293,1540,1571,1644,-6.5571515,106.7339567
90,6,2,F450,15106,11.38,8.58,-7.56,-5.59,7.25,2.0,0.05,0.02,0.453679,0.007263362,0.4629044,7.85,10.04971,-2,-3,1.12,0.53,0.88,0.14,220,4,554905200,14,223.68,1.505,46.20233,0.06870972,-0.02255903,0.4433849,-0.1797092,-0.5117122000000001,-10.15521,-9.487283,365,-44,-227,-279,1577,1618,1628,-6.5571497,106.73395890000002
91,6,2,F450,15116,10.52,8.73,-9.0,-6.09,19.25,7.93,0.06,0.04,0.4538158,0.007995635,0.4629044,7.85,10.05955,-2,-4,1.12,0.53,0.88,0.14,180,4,554905400,14,223.61,1.574,48.48712,-0.01597787,0.07378045,0.6734005,-0.5173305,0.31732009999999994,-11.18936,-10.23721,353,-64,-241,-283,1567,1657,1588,-6.5571479,106.7339613
92,6,2,F450,15126,8.69,8.12,-11.1,-7.05,31.25,16.31,0.05,0.05,0.4682823,0.008272171,0.4629044,7.85,10.06223,-1,-6,1.12,0.53,0.88,0.13,220,4,554905600,14,223.56,1.877,51.43005,-0.1804835,-0.08109891,1.005102,-0.4053506,0.4713509,-11.24487,-11.17059,345,-116,-225,-269,1589,1657,1597,-6.5571459,106.733964
93,6,2,F450,15136,5.55,6.42,-13.25,-9.52,43.14,28.03,0.05,0.07,0.4683571,0.00962469,0.4629044,7.85,10.06542,0,-3,1.12,0.53,0.88,0.13,180,4,554905800,14,223.55,1.925,50.89325,-0.3652551,-0.00985381,1.18954,-0.8295096,-1.561908,-10.63673,-10.80572,315,-181,-230,-272,1563,1660,1594,-6.5571437,106.733967
94,6,2,F450,15146,1.83,1.15,-14.78,-11.74,48.57,41.71,0.06,0.08,0.4511905,0.009689361,0.4629044,7.85,10.07957,0,0,1.12,0.53,0.88,0.15,200,4,554906000,14,223.51,2.04,51.26471,-0.16019660000000002,-0.07159169,1.149333,-1.018525,0.3489026,-10.69838,-10.63549,263,-239,-242,-291,1509,1600,1638,-6.557141400000001,106.73397
95,6,2,F450,15156,-0.95,-2.16,-15.6,-10.59,49.41,54.67,0.06,0.08,0.4235231,0.007649421999999999,0.4629044,7.85,10.11108,-2,0,1.12,0.53,0.87,0.15,200,4,554906200,14,223.49,1.982,49.43958,0.2681362,0.4561706,1.037758,-1.122276,-0.5199252000000001,-11.08944,-10.08626,205,-286,-260,-289,1406,1546,1658,-6.5571391000000006,106.7339729
96,6,2,F450,15166,-3.2,-0.63,-16.92,-5.16,49.51,66.08,0.06,0.07,0.4155999,0.001703709,0.4629044,7.85,10.15653,-5,1,1.12,0.53,0.88,0.14,220,4,554906400,14,223.46,1.995,49.2252,0.1790287,0.5624305,0.8548235999999999,-1.420357,0.002409272,-10.4068,-10.31526,141,-337,-238,-258,1314,1482,1609,-6.5571367,106.7339758
97,6,2,F450,15176,-6.61,-0.9,-19.54,-0.93,49.58,75.06,0.06,0.05,0.4602793,0.000135958,0.4622913,7.85,10.19667,-8,-4,1.12,0.53,0.88,0.15,180,4,554906600,14,223.4,1.815,44.84101,-0.3807549000000001,-0.05532083,0.567579,-0.6570733,-0.09796418,-11.12297,-10.32358,103,-359,-198,-238,1298,1489,1624,-6.5571343,106.7339783
98,6,2,F450,15186,-12.25,-5.45,-21.55,-2.67,56.69,81.04,0.07,0.04,0.5080511999999999,0.002860487,0.4621425,7.85,10.23337,-10,-15,1.12,0.53,0.88,0.15,200,4,554906800,14,223.36,1.899,38.9148,-0.4112423,-0.2853973,0.2327345,-0.3334517,-0.8841763000000001,-9.216945,-9.143147,61,-364,-222,-265,1348,1463,1641,-6.5571315000000014,106.7339805
99,6,2,F450,15196,-13.75,-11.29,-23.27,-4.11,59.48,82.95,0.07,0.03,0.505524,0.01139981,0.4621425,7.85,10.24189,-10,-24,1.12,0.53,0.88,0.16,220,4,554907000,14,223.25,2.074,31.10568,-0.1013855,-0.1345545,-0.05877299,-0.6150783000000001,0.8456796999999998,-9.599667,-8.929605,39,-352,-250,-302,1323,1477,1643,-6.5571285,106.73398229999998
100,6,2,F450,15206,-10.09,-10.5,-25.89,-7.34,57.87,82.35,0.06,0.02,0.5908517,0.01496929,0.4621425,7.85,10.21996,-6,-30,1.12,0.53,0.88,0.16,200,4,554907200,14,223.1,2.039,31.66426,0.4455522,-0.6517568,-0.247668,-0.2684818,0.2218226,-9.442816,-8.809349000000003,15,-324,-275,-319,1399,1412,1664,-6.5571253,106.7339843
101,6,2,F450,15216,-4.51,-5.22,-27.86,-13.33,53.98,80.02,0.05,0.02,0.580731,0.01873732,0.4621425,7.85,10.17872,0,-43,1.12,0.53,0.88,0.14,180,4,554907400,14,222.94,2.728,30.36999,0.3487822,-0.1666815,-0.2416303,0.9300658000000002,0.5047788,-9.412302,-9.498371,12,-332,-248,-296,1458,1522,1655,-6.5571217000000015,106.7339866
102,6,2,F450,15226,-1.33,-2.15,-27.43,-14.23,53.42,77.2,0.09,0.02,0.6013655,0.01957703,0.4621425,7.85,10.1128,7,-38,1.12,0.53,0.88,0.15,200,4,554907600,14,222.82,2.662,32.79039,-0.0902753,-0.1263678,-0.1962443,-0.8343143,0.13364620000000002,-11.1209,-10.99142,11,-353,-223,-268,1476,1538,1603,-6.557117699999999,106.7339893
103,6,2,F450,15236,-0.06,-2.01,-25.93,-16.11,53.8,75.14,0.12,0.02,0.5747045000000001,0.02372068,0.4621425,7.85,10.04562,16,-30,1.12,0.53,0.88,0.16,200,4,554907800,14,222.76,2.701,34.20986,0.002369886,-0.1199015,-0.1108019,0.4077552,-0.16061470000000005,-11.18479,-10.60709,22,-361,-223,-281,1511,1606,1674,-6.557113799999999,106.7339923
104,6,2,F450,15246,0.84,-2.06,-23.68,-16.91,54.26,74.02,0.12,0.02,0.5302218000000001,0.02450126,0.4621425,7.85,10.01136,23,-12,1.12,0.53,0.88,0.19,200,4,554908000,14,222.77,3.135,36.68079,0.09572951,-0.003457543,-0.06103043,-0.16453199999999998,-0.562708,-10.00789,-9.622374,26,-364,-232,-281,1546,1580,1692,-6.557109700000002,106.7339956
105,6,2,F450,15256,1.85,-1.96,-20.96,-17.36,54.6,73.08,0.12,0.02,0.5324565,0.02567291,0.4621425,7.85,10.00804,26,-1,1.12,0.54,0.88,0.19,220,4,554908200,14,222.73,3.5860000000000003,41.77609,-0.1557,0.08435498,-0.03927557,-1.394577,0.5992052,-11.78935,-11.01976,33,-360,-230,-274,1516,1588,1678,-6.5571052,106.7339997
106,6,2,F450,15266,3.0,-1.56,-18.48,-17.63,54.81,72.14,0.1,0.02,0.5094869000000001,0.02487177,0.4621425,7.85,10.03227,26,4,1.12,0.54,0.89,0.19,180,4,554908400,14,222.73,3.66,44.54603,0.2299495,0.07311881,-0.1252656,-2.308877,-0.4386879,-12.6313,-11.71045,29,-351,-233,-290,1518,1578,1658,-6.5571007,106.7340045
107,6,2,F450,15276,3.81,1.83,-16.11,-16.24,54.95,71.01,0.09,0.02,0.482596,0.02057755,0.4621425,7.85,10.09598,24,28,1.12,0.54,0.89,0.18,200,4,554908600,14,222.73,3.8,48.18045,0.2146303,0.15949539999999998,-0.1508447,-0.1216631,0.6244439,-9.504648,-9.452343,42,-358,-226,-269,1555,1494,1626,-6.557096400000002,106.7340097
108,6,2,F450,15286,2.65,3.63,-14.38,-12.44,54.94,69.16,0.1,0.03,0.4387933,0.01159397,0.4621425,7.85,10.19848,18,28,1.12,0.54,0.89,0.19,200,4,554908800,14,222.76,3.721,50.38701,-0.2027645,0.27879990000000004,-0.2598596,-0.8183714,-0.4938909000000001,-11.22618,-11.17488,60,-373,-212,-231,1421,1566,1582,-6.5570922000000005,106.734015
109,6,2,F450,15296,0.72,-0.01,-14.28,-10.17,54.71,66.43,0.09,0.04,0.3967932,0.006238729,0.4621425,7.85,10.32172,11,32,1.12,0.54,0.89,0.19,200,4,554909000,14,222.8,3.851,51.51175,-0.2623962,-0.13828410000000002,-0.3081226,-0.9296382,0.01031907,-8.548687,-7.577353,91,-366,-208,-248,1409,1522,1563,-6.5570881,106.73402040000002
110,6,2,F450,15306,0.33,-2.38,-15.03,-11.59,54.31,62.84,0.08,0.04,0.4303958,0.009483457,0.4621425,7.85,10.46238,1,23,1.12,0.54,0.9,0.18,220,4,554909200,14,222.81,3.863,52.74959000000001,-0.1232642,-0.2845454,-0.3194654000000001,-1.605367,-0.1127069,-9.925136,-9.687088,106,-340,-238,-269,1356,1560,1569,-6.557084,106.734026
111,6,2,F450,15316,1.65,-2.3,-15.5,-13.94,53.89,59.63,0.08,0.03,0.4088067,0.01274836,0.4621425,7.85,10.58949,-6,6,1.12,0.54,0.9,0.18,180,4,554909400,14,222.76,3.969,52.44233000000001,0.1361155,-0.06566279,-0.2426475,-2.0781240000000003,0.3262778,-9.257696,-9.355221,125,-322,-254,-280,1440,1526,1576,-6.5570799,106.7340316
112,6,2,F450,15326,3.17,-0.53,-15.2,-14.36,53.56,57.38,0.09,0.02,0.3730482,0.01191515,0.4621425,7.85,10.7049,-13,-5,1.12,0.54,0.9,0.17,200,4,554909600,14,222.71,4.109,52.52758000000001,0.06611147,0.0168488,-0.1336638,-0.2236425,0.2929258,-9.52375,-8.882113,138,-311,-256,-280,1456,1530,1578,-6.557075599999999,106.7340374
113,6,2,F450,15336,3.79,0.03,-14.58,-13.61,53.28,56.44,0.07,0.02,0.4060349,0.01173088,0.4621425,7.85,10.79896,-17,-12,1.12,0.54,0.9,0.14,200,4,554909800,14,222.64,4.138,52.34528,0.07448965,-0.06863444,-0.03776738,-2.005439,0.2039827,-10.01944,-9.914223,138,-316,-245,-270,1384,1582,1579,-6.5570711,106.7340432
114,6,2,F450,15346,3.92,0.07,-14.19,-13.26,53.04,56.61,0.07,0.01,0.4002219,0.01079851,0.4621425,7.85,10.88034,-20,-25,1.12,0.54,0.9,0.16,220,4,554910000,14,222.59,4.26,51.87511,0.08173341,0.001813316,0.0513709,-1.512289,-0.1301097,-9.356027,-8.498281,145,-325,-254,-268,1404,1566,1578,-6.5570664,106.73404920000002
115,6,2,F450,15356,3.89,0.02,-14.12,-13.52,52.82,57.28,0.07,0.01,0.4354812,0.0123772,0.4621425,7.85,10.94714,-22,-26,1.12,0.54,0.9,0.15,200,4,554910200,14,222.54,4.435,51.45688,-0.1063519,-0.04073868,0.03745009,-1.395607,-0.4783207,-11.27098,-10.49467,148,-322,-240,-278,1421,1561,1584,-6.5570615000000005,106.7340553
116,6,2,F450,15366,3.78,0.01,-13.95,-13.16,52.63,57.99,0.06,0.01,0.4592977,0.01256275,0.4621425,7.85,11.01104,-23,-24,1.12,0.54,0.91,0.17,180,4,554910400,14,222.46,4.364,52.04408,0.08613791,0.2253973,0.03914235,-2.084409,-0.7386633,-10.05213,-9.779028,143,-320,-241,-284,1453,1543,1575,-6.5570567,106.7340616
117,6,2,F450,15376,3.52,0.92,-13.68,-11.19,52.47,58.74,0.05,0.0,0.4334244,0.008529276,0.4621425,7.85,11.07216,-24,-26,1.12,0.54,0.91,0.16,200,4,554910600,14,222.36,4.628,52.50501,0.2187176,0.1188612,0.02547497,-1.109399,-0.6023386,-9.593616,-8.38211,139,-321,-244,-265,1413,1553,1563,-6.5570518,106.734068
118,6,2,F450,15386,2.67,1.4,-13.79,-10.23,52.32,59.19,0.07,0.0,0.4591409000000001,0.0076484080000000015,0.4621425,7.85,11.13635,-25,-27,1.12,0.54,0.91,0.21,200,4,554910800,14,222.3,4.466,52.69121,-0.02063247,-0.01491194,0.03067522,-0.3181788,-0.10563980000000002,-11.07885,-10.09121,148,-336,-224,-261,1408,1560,1577,-6.5570469,106.7340743
119,6,2,F450,15396,1.41,1.17,-14.21,-10.48,52.11,59.38,0.07,0.0,0.4557951,0.007896661999999999,0.4621425,7.85,11.1955,-26,-26,1.12,0.55,0.91,0.19,200,4,554911000,14,222.16,4.728,52.85312,-0.136356,-0.1112613,0.05851969,-0.4818578,-0.2820473,-10.29059,-10.50099,144,-335,-233,-257,1430,1544,1578,-6.557042,106.7340809
120,6,2,F450,15406,0.31,-0.33,-14.23,-10.88,51.84,59.41,0.08,0.0,0.4394457000000001,0.008111984000000001,0.4621425,7.85,11.25397,-26,-22,1.12,0.55,0.92,0.2,220,4,554911200,14,222.1,4.493,54.03051,-0.06241142,0.07893252,-0.01375446,-1.678249,-0.07740435,-11.61015,-11.60048,149,-331,-223,-261,1383,1573,1594,-6.5570371,106.7340876
121,6,2,F450,15416,-0.17,-1.63,-14.17,-10.65,51.55,59.18,0.08,0.0,0.4706239,0.008600563,0.4621425,7.85,11.29622,-25,-28,1.12,0.55,0.92,0.19,180,4,554911400,14,222.03,4.825,53.00402,0.02384904,-0.120386,-0.002929136,-0.6619378,0.2361576,-9.945467,-9.399899,135,-320,-249,-282,1347,1600,1591,-6.5570322,106.7340943
122,6,2,F450,15426,-0.18,-1.47,-13.98,-11.09,51.27,59.16,0.1,0.0,0.4578413,0.008959293,0.4621425,7.85,11.33708,-23,-25,1.12,0.55,0.93,0.27,200,4,554911600,14,221.95,4.632,53.47481,-0.04530214,-0.1103345,-0.02055729,-2.463725,0.5159769000000001,-12.26104,-12.07257,142,-319,-238,-280,1389,1580,1630,-6.557027099999999,106.734101
123,6,2,F450,15436,-0.23,-1.39,-13.6,-12.47,51.0,58.87,0.11,0.0,0.4816015,0.012004700000000002,0.4621425,7.85,11.38597,-23,-27,1.12,0.56,0.94,0.29,200,4,554911800,14,221.85,4.905,54.32546,0.02161697,-0.01354078,-0.04908049,-1.354051,0.4688567,-9.754326,-9.155226,146,-318,-246,-276,1393,1587,1614,-6.5570222000000005,106.734108
124,6,2,F450,15446,-0.43,-1.17,-12.71,-12.18,50.76,58.27,0.13,0.0,0.4643951,0.01082581,0.4621425,7.85,11.42762,-21,-26,1.12,0.56,0.95,0.24,220,4,554912000,14,221.78,4.913,52.44249,-0.1565331,0.04036304,-0.1369496,-2.720149,0.9928394,-11.35648,-11.26497,137,-312,-254,-286,1453,1554,1615,-6.557016900000002,106.7341149
125,6,2,F450,15456,-0.28,-2.62,-11.75,-11.81,50.53,56.95,0.12,0.0,0.4838279,0.01113045,0.4621425,7.85,11.45612,-18,-20,1.12,0.57,0.97,0.23,200,4,554912200,14,221.71,4.782,52.081,-0.03156141,0.1322229,-0.10798030000000003,-2.1497080000000004,-0.9399202,-11.14039,-10.03757,148,-315,-252,-292,1417,1600,1636,-6.5570114,106.73412179999998
126,6,2,F450,15466,0.52,-2.18,-10.66,-11.43,50.32,55.74,0.12,0.0,0.4540986,0.009395659,0.4621425,7.85,11.48629,-15,-23,1.29,0.57,0.97,0.23,180,4,554912400,13,221.65,4.822,52.71778000000001,-0.01551462,0.2018592,-0.02454598,-2.4320150000000003,0.5233445999999999,-11.72334,-10.57206,161,-313,-253,-292,1443,1586,1628,-6.5570061,106.7341286
127,6,2,F450,15476,1.4,-0.31,-9.77,-9.64,50.21,54.94,0.12,0.0,0.4499574000000001,0.006528585999999999,0.4621425,7.85,11.52163,-12,-11,1.29,0.57,0.98,0.19,200,4,554912600,13,221.64,5.059,50.93027,0.05886183,0.17218870000000006,-0.04766528,-1.569127,-1.202207,-11.31393,-10.66826,160,-303,-247,-282,1446,1582,1600,-6.5570005999999985,106.7341357
128,6,2,F450,15486,1.74,-0.02,-9.28,-9.42,50.16,54.35,0.12,0.01,0.4929327,0.006782919,0.4621425,7.85,11.56276,-11,-12,1.29,0.57,0.98,0.18,200,4,554912800,13,221.61,5.025,49.79038,0.02074427,-0.14830839999999998,-0.01939301,-0.9504136,-0.1536828,-7.715175,-7.223014,184,-309,-240,-278,1434,1588,1618,-6.5569947,106.73414270000002
129,6,2,F450,15496,2.04,-0.6,-8.69,-10.77,50.13,54.1,0.12,0.01,0.4683231,0.008374721,0.4621425,7.85,11.6066,-9,-13,1.29,0.57,0.98,0.2,200,4,554913000,13,221.64,4.944,50.57513,0.06537143,0.03073391,0.03658569,-2.722971,-0.8589509,-13.32101,-11.96189,176,-305,-243,-278,1469,1570,1616,-6.556988799999999,106.7341496
130,6,2,F450,15506,2.48,0.31,-7.37,-10.64,50.15,54.15,0.1,0.01,0.4906285,0.008662879,0.4621425,7.85,11.64026,-6,-12,1.29,0.57,0.98,0.18,200,4,554913200,13,221.59,4.92,50.28116,0.07319828,0.16534029999999994,-0.005073148,-2.87048,-0.01279591,-11.53361,-11.89888,174,-304,-249,-285,1492,1570,1643,-6.5569833,106.7341566
131,6,2,F450,15516,2.82,0.86,-5.49,-7.82,50.21,54.45,0.11,0.01,0.4707934,0.004322827,0.4621425,7.85,11.67192,-3,-13,1.29,0.57,0.99,0.18,220,4,554913400,13,221.55,4.809,50.72473,0.07523236,0.2446883,0.06617052,-1.477865,0.218529,-9.529894,-9.940708,177,-311,-236,-281,1470,1574,1636,-6.5569779000000015,106.7341634
132,6,2,F450,15526,2.93,1.22,-4.28,-3.89,50.28,55.46,0.1,0.01,0.4491597,0.001203924,0.4621395,7.85,11.71142,-1,5,1.29,0.57,0.99,0.18,200,4,554913600,13,221.52,4.475,50.70003,-0.1652057,0.544696,0.09761205,-2.527288,-0.2176004,-10.93828,-10.09007,192,-317,-220,-252,1448,1540,1583,-6.5569727,106.7341699
133,6,2,F450,15536,2.63,1.61,-4.81,-0.45,50.32,56.93,0.09,0.01,0.424218,0.000161678,0.461818,7.85,11.77289,-2,4,1.29,0.57,1.0,0.19,200,4,554913800,13,221.54,4.185,51.1744,0.3063654000000001,-0.15624229999999995,0.1364328,-1.383408,0.1729088,-11.24983,-10.84093,209,-318,-198,-236,1399,1541,1557,-6.5569678,106.734176
134,6,2,F450,15546,1.24,4.75,-6.21,-2.21,50.29,57.74,0.09,0.02,0.4203133,0.001755297,0.4614433,7.85,11.85174,-4,-1,1.29,0.58,1.0,0.22,200,4,554914000,13,221.52,4.117,52.18254,-0.182883,-0.4685816,0.01583356,-1.217792,-0.0058662440000000005,-7.903596,-8.984858000000003,193,-336,-186,-227,1359,1559,1566,-6.5569633000000005,106.7341818
135,6,2,F450,15556,-1.47,2.16,-7.09,-5.68,50.07,57.31,0.08,0.01,0.4750376,0.002656847,0.4611923,7.85,11.92535,-7,-3,1.29,0.58,1.01,0.26,200,4,554914200,13,221.48,3.885,53.09481,-0.3993046,-0.3039035,-0.08752283,-0.9436461,-0.9131976,-7.622138,-7.697257,183,-337,-195,-246,1470,1488,1629,-6.5569591,106.7341874
136,6,2,F450,15566,-3.07,-2.43,-6.44,-9.01,49.6,55.75,0.08,0.01,0.5226063,0.006949126999999999,0.4611923,7.85,11.96495,-6,-16,1.29,0.58,1.02,0.2,180,4,554914400,13,221.43,3.788,53.949,-0.2426361,-0.23394,-0.1881166,-0.6380954000000001,-1.0511629999999998,-8.553848,-7.894589,181,-314,-225,-282,1460,1557,1634,-6.5569552,106.73419309999998
137,6,2,F450,15576,-2.47,-3.45,-4.27,-7.82,49.01,54.08,0.07,0.01,0.4902785,0.005552858000000001,0.4611923,7.85,11.97218,-2,-13,1.29,0.59,1.03,0.21,200,4,554914600,13,221.45,3.857,52.59991,0.07384907,0.5026406,-0.06785873,-2.629889,0.35769290000000004,-11.93915,-11.45558,172,-291,-251,-306,1486,1577,1645,-6.5569511,106.7341987
138,6,2,F450,15586,-1.36,-1.08,-2.48,-3.24,48.43,53.04,0.07,0.01,0.4981452,0.000914693,0.4615732,7.85,11.97092,1,-6,1.12,0.59,1.04,0.24,220,4,554914800,14,221.42,3.446,52.45593,0.1501805,0.3376095,-0.1162936,-2.396975,-0.4123392,-12.10835,-11.08408,203,-293,-233,-277,1495,1569,1597,-6.556947,106.7342037
139,6,2,F450,15596,-1.1,-1.26,-2.36,-1.8,47.9,52.38,0.06,0.01,0.4829786,0.000346601,0.4624119,7.85,11.98237,5,0,1.12,0.59,1.04,0.25,200,4,554915000,14,221.42,3.117,51.56699,-0.1194767,0.03712756,-0.05835615,-1.461179,-0.3981637,-11.27238,-11.20106,224,-299,-214,-256,1455,1592,1611,-6.5569433,106.7342083
140,6,2,F450,15606,-0.9,-1.61,-2.82,-0.83,47.43,51.7,0.07,0.01,0.4708630999999999,0.000257522,0.4628515,7.85,12.01512,5,9,1.12,0.6,1.05,0.24,200,4,554915200,14,221.41,2.8280000000000003,50.48805,0.1034368,0.06859178,-0.06943999,-1.967498,-0.6893685,-9.392232,-9.495114,229,-293,-210,-261,1425,1574,1597,-6.5569398,106.7342124
141,6,2,F450,15616,-0.31,-1.13,-3.32,-0.14,47.02,51.33,0.07,0.01,0.4369275,8.070000000000001e-05,0.4628571,7.85,12.06454,4,11,1.12,0.6,1.06,0.21,200,4,554915400,14,221.44,2.541,49.94576,0.2123927,0.02401051,-0.01406793,-1.357161,0.07408378,-8.921417,-8.71577,225,-288,-214,-259,1444,1548,1591,-6.5569365999999984,106.7342162
142,6,2,F450,15626,-0.36,1.37,-3.82,0.0,46.71,51.51,0.06,0.01,0.4215007000000001,9.7e-05,0.4625633,7.85,12.12969,1,12,1.12,0.6,1.06,0.22,180,4,554915600,14,221.43,2.509,49.39843,-0.01869884,-0.02780775,0.04251304,-1.336081,-0.2442601,-10.73835,-10.27604,234,-302,-203,-237,1419,1537,1539,-6.5569336,106.7342197
143,6,2,F450,15636,-1.19,0.75,-4.14,-1.14,46.36,51.7,0.06,0.01,0.4451402,0.000144273,0.461904,7.85,12.19807,-2,7,1.12,0.6,1.06,0.21,200,4,554915800,14,221.48,2.232,50.16198,0.07059085,-0.06245865,-0.009895319,-0.3562774,0.4947317,-8.513662,-7.531764,226,-304,-199,-243,1411,1513,1583,-6.5569307,106.7342231
144,6,2,F450,15646,-2.28,0.7,-3.95,-1.3,45.75,51.81,0.06,0.01,0.447782,0.000155449,0.4613205,7.85,12.23833,-4,3,1.12,0.6,1.06,0.2,220,4,554916000,14,221.53,1.88,52.05083,-0.01809502,0.1115667,-0.02709697,-3.007568,0.8449883,-12.09599,-11.77998,228,-302,-203,-247,1388,1547,1554,-6.5569285000000015,106.7342262
145,6,2,F450,15656,-3.35,0.13,-3.31,-0.15,44.73,51.45,0.06,0.01,0.4879601,1.3699999999999998e-05,0.4612,7.85,12.25364,-3,-6,1.12,0.6,1.07,0.19,200,4,554916200,14,221.48,1.761,52.03745,-0.127448,0.14230479999999998,-0.1071392,-0.3637450999999999,-0.3592782,-9.38318,-8.894171,222,-300,-203,-235,1430,1529,1540,-6.5569265,106.7342288
146,6,2,F450,15666,-4.19,-1.78,-3.0,0.85,43.72,50.28,0.07,0.01,0.4875484000000001,0.000293285,0.4613873,7.85,12.26023,-1,-10,1.12,0.6,1.07,0.2,200,4,554916400,14,221.42,1.626,49.88971,-0.07569171,-0.07542357,-0.101837,-0.4630672000000001,0.1310087,-11.45267,-10.50597,253,-288,-202,-250,1448,1535,1593,-6.556924499999999,106.7342311
147,6,2,F450,15676,-4.4,-2.27,-2.88,-0.54,43.44,49.27,0.07,0.02,0.4605103,0.000395656,0.4618368,7.85,12.26093,0,-11,1.12,0.6,1.08,0.18,200,4,554916600,14,221.45,1.415,49.07099,0.02459934,-0.1001143,-0.0366929,-0.4115082000000001,-0.8708091999999998,-10.36882,-9.890764,243,-278,-215,-260,1420,1584,1595,-6.556922599999999,106.7342333
148,6,2,F450,15686,-3.66,-3.29,-1.78,-1.39,43.37,49.32,0.06,0.02,0.5086737,0.000939667,0.4623195,7.85,12.24197,3,-3,1.12,0.6,1.08,0.22,180,4,554916800,14,221.46,1.188,47.84488,0.0106188,0.03886193,0.1134087,-1.24847,-0.3898133,-11.36344,-10.95561,243,-274,-227,-265,1459,1549,1602,-6.5569209000000015,106.7342351
149,6,2,F450,15696,-2.39,-1.48,0.14,-0.79,43.35,50.33,0.06,0.03,0.4946288,0.000249594,0.4629686,7.85,12.19858,9,-4,1.12,0.6,1.08,0.23,200,4,554917000,14,221.47,1.078,43.88752,0.1118345,0.1234693,0.09036623,-1.415404,-0.2199723,-9.555935,-10.38738,239,-278,-218,-269,1456,1551,1650,-6.5569194,106.7342366
150,6,2,F450,15706,-1.37,-1.48,1.42,0.75,43.35,51.23,0.06,0.03,0.5348359,0.000207007,0.4639102,7.85,12.13789,16,6,1.12,0.6,1.08,0.23,200,4,554917200,14,221.45,0.8890001000000001,41.94556,0.023949400000000003,-0.08866869,0.06983592,-1.04874,-0.5662823,-10.02292,-9.660533,240,-292,-214,-258,1457,1566,1647,-6.556918,106.7342377
151,6,2,F450,15716,-0.36,-0.37,1.61,-0.63,43.35,51.87,0.05,0.03,0.5308977,5.6299999999999986e-05,0.4651514,7.85,12.07006,24,17,1.12,0.6,1.08,0.21,220,4,554917400,14,221.46,0.8859999999999999,35.51056,0.07675663,-0.1267151,0.01716914,-1.248996,-0.02594274,-11.19675,-10.38463,237,-288,-205,-260,1493,1543,1645,-6.5569166,106.7342386
152,6,2,F450,15726,0.54,0.06,2.01,-2.93,43.35,52.06,0.06,0.03,0.5086457999999999,0.000600874,0.4665354,7.85,12.00193,32,18,1.12,0.6,1.08,0.2,200,4,554917600,14,221.53,0.7070000000000001,34.90526,-0.03489753,-0.003842134,0.03026245,-0.7651915,0.397276,-12.60191,-11.39178,224,-299,-211,-272,1498,1548,1701,-6.556915299999999,106.7342394
153,6,2,F450,15736,1.26,-0.34,3.21,-3.28,43.35,52.13,0.05,0.03,0.5230387,0.000905335,0.4678630999999999,7.85,11.95075,38,35,1.12,0.6,1.09,0.25,200,4,554917800,14,221.5,0.716,24.90631,0.03605613,0.02754027,-0.01111259,-0.9048378,0.05408907,-10.42636,-10.32807,218,-298,-214,-276,1508,1527,1684,-6.5569141,106.7342396
154,6,2,F450,15746,2.16,0.13,4.83,-2.42,43.35,51.93,0.06,0.03,0.5228465999999999,0.0005047319999999999,0.4689454000000001,7.85,11.925999999999998,41,43,1.12,0.6,1.09,0.23,200,4,554918000,14,221.61,0.467,28.5661,0.15583670000000002,0.194412,-0.04536453,0.1332604,-0.8444574,-10.26841,-9.473383,227,-296,-222,-256,1470,1549,1664,-6.556913099999999,106.73424
155,6,2,F450,15756,2.88,1.12,5.86,-0.87,43.35,51.38,0.07,0.03,0.4699311,0.00012397799999999998,0.4698167,7.85,11.9213,42,39,1.12,0.6,1.09,0.27,200,4,554918200,14,221.71,0.537,25.608970000000006,-0.191011,0.17621470000000006,-0.05825006,-1.204206,0.28790340000000003,-12.99742,-11.97479,236,-296,-205,-258,1473,1544,1666,-6.5569122,106.7342404
156,6,2,F450,15766,3.55,1.03,6.02,-0.59,43.35,50.42,0.09,0.02,0.5133923,9.22e-05,0.470584,7.85,11.91403,43,52,1.12,0.6,1.09,0.28,200,4,554918400,14,221.8,0.501,18.5779,0.09185332,-0.15842160000000002,-0.06594454,0.6640108,0.07356356,-9.475158,-8.896004,241,-299,-203,-254,1477,1542,1677,-6.556911200000001,106.7342405
157,6,2,F450,15776,3.93,0.99,5.96,-1.73,43.35,49.35,0.08,0.02,0.519123,0.000345767,0.4713739000000001,7.85,11.91062,44,48,1.12,0.6,1.1,0.28,180,4,554918600,14,221.89,0.141,18.5779,-0.03144768,0.043180300000000005,-0.05628545,0.7100377,-0.6125937,-9.825286,-9.63374,241,-295,-204,-248,1474,1557,1676,-6.5569106,106.7342405
158,6,2,F450,15786,4.22,1.46,6.23,-1.76,43.35,48.48,0.07,0.02,0.5208268,0.000415504,0.4721056,7.85,11.91741,43,44,1.12,0.6,1.1,0.27,220,4,554918800,14,221.96,0.417,13.39205,0.09051976,-0.02899028,-0.08026639,-0.1784583,-0.3252401,-10.04307,-9.631581,244,-290,-203,-255,1507,1524,1689,-6.5569101,106.7342405
159,6,2,F450,15796,4.47,2.04,6.72,-1.46,43.35,47.77,0.1,0.02,0.4861852,0.000444174,0.4727391,7.85,11.93251,42,42,1.12,0.61,1.1,0.31,200,4,554919000,14,222.04,0.243,12.9174,-0.05381401,0.007585407,-0.0630639,-0.803297,-0.3821194000000001,-11.44774,-10.93493,239,-286,-199,-255,1493,1537,1672,-6.5569095,106.7342406
160,6,2,F450,15806,4.36,2.03,6.77,-1.38,43.35,47.12,0.11,0.02,0.4957179,0.000465661,0.4733518,7.85,11.94492,41,41,1.12,0.61,1.11,0.3,200,4,554919200,14,222.22,0.034,12.9174,0.08258902,-0.01141391,-0.03502526,-0.03563398,-0.6627823,-9.910086,-9.563053,252,-283,-194,-252,1435,1593,1666,-6.5569093999999986,106.73424070000002
161,6,2,F450,15816,4.27,2.02,6.88,-1.08,43.35,46.98,0.1,0.03,0.4887285,0.000408709,0.4739657,7.85,11.96008,39,42,1.12,0.61,1.11,0.3,200,4,554919400,14,222.37,0.067,12.9174,0.07343344,0.03463978,-0.03110859,-0.6495181,-0.09702203,-9.359248,-8.746678,259,-289,-199,-241,1502,1530,1686,-6.5569093999999986,106.73424070000002
162,6,2,F450,15826,4.05,2.12,6.88,-0.89,43.35,46.86,0.1,0.03,0.4986592000000001,0.000434011,0.4744867,7.85,11.97803,38,39,1.12,0.61,1.11,0.3,200,4,554919600,14,222.51,0.114,12.9174,-0.0603979,0.04095442,-0.02339882,-0.7374235,-0.31385240000000003,-10.3867,-9.830018,258,-282,-194,-250,1539,1490,1682,-6.5569093999999986,106.7342408
163,6,2,F450,15836,3.54,1.8,6.58,-0.99,43.35,46.73,0.08,0.03,0.5097224,0.00032866,0.4749596,7.85,11.99769,36,33,1.12,0.61,1.11,0.25,200,4,554919800,14,222.65,0.29100000000000004,270.2418,-0.09756238,-0.1176021,-0.02411144,0.55215,-0.3835406,-9.455791,-9.006654,256,-283,-200,-246,1484,1541,1685,-6.556909700000001,106.73424070000002
164,6,2,F450,15846,3.01,0.98,6.2,-1.15,43.35,46.7,0.07,0.03,0.4617645,0.000128657,0.4753461,7.85,12.0214,33,32,1.12,0.61,1.11,0.25,180,4,554920000,14,222.71,0.086,270.2418,-0.1362408,0.14326370000000002,-0.01348718,-1.832285,0.04877741,-13.346470000000002,-12.41829,261,-285,-201,-263,1503,1517,1673,-6.5569098,106.7342402
165,6,2,F450,15856,2.85,0.32,5.97,-1.1,43.35,46.63,0.1,0.02,0.4814267,8.44e-05,0.4755841,7.85,12.04719,30,30,1.12,0.61,1.11,0.23,220,4,554920200,14,222.78,0.172,250.4906,0.07141271,-0.06411298,-0.02553657,0.7437411999999999,0.25345189999999995,-9.422475,-9.290691,251,-276,-207,-259,1474,1536,1704,-6.55691,106.73424009999998
166,6,2,F450,15866,3.15,0.92,5.42,-0.98,43.35,46.19,0.11,0.03,0.5071680000000001,0.00014174,0.4758174,7.85,12.06889,28,28,1.12,0.6,1.11,0.22,200,4,554920400,14,222.88,0.317,244.0856,0.00882432,-0.03491294,-0.03765798,0.0903766,0.13765379999999994,-10.28391,-10.23824,264,-269,-209,-254,1546,1477,1708,-6.5569102,106.7342398
167,6,2,F450,15876,3.44,1.35,4.96,-0.95,43.35,45.57,0.11,0.03,0.5059707999999999,0.000220001,0.4762173,7.85,12.07861,27,27,1.12,0.6,1.11,0.28,200,4,554920600,14,223.0,0.09900001,244.0856,-0.08538038,-0.004930124,-0.02743831,0.8956076999999999,-0.4810643,-9.422529,-9.187246,256,-270,-210,-253,1521,1523,1692,-6.5569103,106.7342395
168,6,2,F450,15886,3.41,0.91,4.47,-1.5,43.35,44.66,0.1,0.03,0.5013706,0.00025028,0.4767265000000001,7.85,12.08098,26,26,1.12,0.6,1.11,0.22,200,4,554920800,14,223.09,0.35,235.6972,-0.1703816,-0.0700383,-0.06050163,-0.005468173000000001,0.2604565,-10.4691,-10.69621,263,-269,-208,-255,1523,1534,1694,-6.5569105,106.7342393
169,6,2,F450,15896,3.7,0.48,3.91,-1.91,43.35,43.84,0.1,0.03,0.4978133,0.000314117,0.477201,7.85,12.08742,25,26,1.12,0.6,1.11,0.2,200,4,554921000,14,223.13,0.318,235.8493,0.008600876,-0.07781906,-0.0620259,-0.372572,-0.09599359,-11.06826,-10.922,271,-267,-203,-260,1525,1535,1702,-6.556910799999999,106.7342387
170,6,2,F450,15906,4.1,1.26,3.69,-1.46,43.35,43.23,0.11,0.03,0.493793,0.000273794,0.477632,7.85,12.09705,24,23,1.12,0.6,1.11,0.25,200,4,554921200,14,223.27,0.245,229.1024,0.1059182,0.005843446,-0.05043273,0.2720915,-0.7262595000000001,-9.473085,-10.08018,277,-266,-200,-254,1543,1522,1677,-6.5569109,106.7342385
171,6,2,F450,15916,3.67,1.57,3.62,-0.65,43.35,42.74,0.08,0.02,0.4970392,0.000240207,0.4780745,7.85,12.10005,23,26,1.12,0.6,1.11,0.21,180,4,554921400,14,223.33,0.37,230.9882,-0.04844366,-0.007847725,-0.04435268,-1.48839,-0.7754762,-9.230247,-9.73859,271,-266,-194,-257,1529,1543,1688,-6.556911500000001,106.7342381
172,6,2,F450,15926,2.29,0.45,3.74,-0.06,43.35,42.42,0.08,0.02,0.5167136,3.43e-05,0.478502,7.85,12.10847,22,28,1.12,0.6,1.11,0.22,220,4,554921600,14,223.43,0.309,235.219,-0.101173,0.009925468,-0.004361313,-0.03790755,-0.0013503360000000002,-9.457129,-9.70501,281,-260,-194,-248,1539,1531,1682,-6.5569117,106.7342376
173,6,2,F450,15936,0.51,-0.84,4.18,0.43,43.35,42.36,0.07,0.03,0.4984432,6.159999999999999e-05,0.4788635,7.85,12.12526,20,18,1.12,0.6,1.12,0.19,180,4,554921800,14,223.49,0.513,241.8636,-0.1998822,0.031816500000000004,0.01432776,0.7109333999999999,-0.04839126,-9.307037,-9.320227,283,-249,-195,-243,1494,1570,1697,-6.556912,106.7342369
174,6,2,F450,15946,-0.65,-2.17,4.4,0.85,43.35,42.49,0.06,0.03,0.4918622,0.000407517,0.4791755,7.85,12.14025,18,18,1.12,0.6,1.12,0.19,220,4,554922000,14,223.56,0.506,246.0564,-0.17218699999999998,0.123434,0.03678257,-0.6208977,0.7751401,-12.12813,-11.45353,288,-250,-196,-264,1529,1534,1692,-6.5569122,106.7342361
175,6,2,F450,15956,-1.29,-2.32,4.52,1.32,43.35,42.69,0.07,0.03,0.4856999,0.000594169,0.4795201,7.85,12.15019,16,13,1.12,0.6,1.12,0.17,200,4,554922200,14,223.63,0.7979999999999999,248.3612,0.1281846,-0.02077027,0.0224103,1.2904209999999998,-0.2976253,-8.515877,-8.034068,289,-249,-203,-259,1516,1549,1694,-6.556912700000002,106.734235
176,6,2,F450,15966,-1.87,-2.22,4.47,1.45,43.35,42.85,0.06,0.03,0.4924029,0.000525832,0.4798769000000001,7.85,12.16373,14,15,1.12,0.6,1.12,0.18,180,4,554922400,14,223.7,0.8010001,251.8957,-0.02203646,-0.009831978,0.001879088,0.3405694,-0.07194522,-9.812813,-9.674467,279,-244,-203,-250,1513,1548,1674,-6.5569131999999986,106.7342337
177,6,2,F450,15976,-2.69,-2.27,4.47,1.33,43.35,43.04,0.08,0.04,0.4695202,0.000527471,0.4802172000000001,7.85,12.17362,12,9,1.12,0.6,1.12,0.16,200,4,554922600,14,223.68,0.987,253.2666,0.06259745,-0.03124488,-0.006534398,0.3916911,-0.08981352,-10.29075,-9.287661,288,-245,-208,-261,1500,1563,1690,-6.5569134999999985,106.7342321
178,6,2,F450,15986,-3.6,-2.98,4.3,1.43,43.35,43.09,0.07,0.04,0.5037705,0.000840962,0.4805997,7.85,12.17851,10,10,1.12,0.6,1.12,0.16,200,4,554922800,14,223.78,1.107,257.1764,0.02381455,0.08892003,-0.0106066,-0.2359893,-0.5323769,-9.492875,-8.686898,286,-249,-199,-259,1565,1496,1697,-6.5569141,106.7342304
179,6,2,F450,15996,-4.28,-3.14,4.08,1.54,43.35,42.96,0.07,0.04,0.5098106,0.000926971,0.48098,7.85,12.18155,9,7,1.12,0.6,1.12,0.17,220,4,554923000,14,223.77,1.231,258.6868,-0.07393389,-0.02222224,-0.01809103,-0.1570443,-0.2934618,-11.34042,-10.56417,280,-240,-207,-263,1533,1536,1701,-6.5569145,106.7342283
180,6,2,F450,16006,-4.83,-3.14,3.81,1.65,43.35,42.8,0.06,0.04,0.5009395000000001,0.001002789,0.4814372,7.85,12.17635,8,6,1.12,0.6,1.11,0.16,200,4,554923200,14,223.8,1.346,262.5742,0.009460768,-0.02950808,-0.004969206,-0.07027092,-0.3461863,-9.836651,-10.88871,292,-244,-203,-252,1549,1529,1682,-6.5569147,106.7342259
181,6,2,F450,16016,-5.53,-3.74,3.82,1.73,42.99,42.86,0.06,0.04,0.513479,0.001315355,0.4819627,7.85,12.1676,7,10,1.12,0.6,1.11,0.16,200,4,554923400,14,223.79,1.531,262.1211,-0.005564568000000001,0.1150436,0.01265211,0.5155029000000001,0.1126523,-9.997519,-9.247849,286,-240,-202,-263,1544,1530,1701,-6.5569149000000015,106.73422340000002
182,6,2,F450,16026,-6.39,-3.64,3.94,2.53,34.91,42.5,0.05,0.04,0.5081997,0.001520336,0.4825346,7.85,12.1552,6,4,1.12,0.6,1.12,0.18,200,4,554923600,14,223.82,1.6969999999999998,261.6227,0.01382025,0.190956,-0.1735279,0.1630382,-0.26715229999999995,-11.04443,-10.66564,293,-241,-198,-265,1514,1421,1745,-6.556915400000001,106.7342204
183,6,2,F450,16036,-7.5,-2.8,3.51,5.39,22.91,39.59,0.06,0.03,0.5484346,0.00308907,0.4832702,7.85,12.13638,6,0,1.12,0.6,1.11,0.18,200,4,554923800,14,223.86,1.978,259.8003,-0.05549376,0.1118213,-0.4335649,-0.4742159000000001,-0.2245846,-10.34649,-10.24245,305,-236,-188,-251,1416,1475,1735,-6.5569161,106.73421709999998
184,6,2,F450,16046,-9.1,-3.77,1.47,6.17,10.91,33.8,0.05,0.02,0.5611807,0.004522979,0.4832702,7.85,12.10638,7,-4,1.12,0.6,1.11,0.19,180,4,554924000,14,223.92,2.191,259.7358,-0.2355803,-0.2033629,-0.6465721,-0.02430101,-0.0725222,-10.57744,-10.33471,332,-221,-175,-241,1471,1441,1768,-6.556916900000001,106.7342134
185,6,2,F450,16056,-10.45,-5.64,-1.52,3.42,359.85,26.06,0.06,0.01,0.5602188,0.003864586,0.4832702,7.85,12.06195,9,-8,1.12,0.6,1.11,0.2,200,4,554924200,14,223.9,2.356,260.4042,-0.09105242,-0.2543814,-0.7888455,0.10777839999999997,-0.05824294,-10.28337,-11.04106,351,-165,-176,-265,1498,1422,1780,-6.5569175,106.7342093
186,6,2,F450,16066,-10.72,-7.16,-4.39,0.04,350.7,16.92,0.05,0.01,0.5684497,0.004432976,0.4832702,7.85,12.01703,11,-5,1.12,0.6,1.12,0.22,220,4,554924400,14,223.95,2.461,261.6435,-0.05444639,-0.02877228,-0.8830478999999999,0.3254906,-0.9263981,-10.43692,-9.244784,356,-117,-203,-280,1491,1453,1782,-6.5569181,106.734205
187,6,2,F450,16076,-9.82,-7.44,-6.53,-1.96,340.36,6.64,0.05,0.01,0.5679694000000001,0.005062938,0.4832702,7.85,11.9873,11,-2,1.12,0.6,1.12,0.29,200,4,554924600,14,224.01,2.75,264.1973,-0.01721696,0.02951587,-0.9826753,-0.1125889,0.9163324,-10.26205,-9.813802,367,-47,-210,-296,1495,1416,1748,-6.556918400000002,106.7342004
188,6,2,F450,16086,-8.11,-6.66,-8.09,-2.2,329.17,355.32,0.04,0.01,0.5524665,0.0041748290000000006,0.4832702,7.85,11.95944,10,-1,1.12,0.61,1.12,0.24,200,4,554924800,14,224.01,2.667,264.9414,0.1644114,0.1054901,-1.040857,-0.7910459,0.4752581,-11.43133,-10.81314,375,27,-216,-283,1523,1375,1737,-6.5569187000000015,106.7341955
189,6,2,F450,16096,-6.01,-4.97,-9.57,-2.69,317.28,343.12,0.04,0.01,0.5669916,0.002696037,0.4833699000000001,7.85,11.93267,9,-6,1.12,0.61,1.12,0.22,200,4,554925000,14,224.03,2.738,267.06,0.09183961,-0.03395853,-1.106863,0.7989113,-0.4546295999999999,-7.093971000000002,-6.903395,369,97,-202,-288,1460,1343,1668,-6.556918799999999,106.7341907
190,6,2,F450,16106,-3.85,-3.09,-10.83,-3.57,305.28,329.68,0.06,0.01,0.6123713000000001,0.002135754,0.4855812,7.85,11.89615,10,-6,1.12,0.61,1.12,0.2,200,4,554925200,14,224.06,2.945,268.494,-0.01375121,-0.1832165,-1.283103,-0.1867371,0.3959045,-8.904922000000003,-7.8516270000000015,332,174,-206,-290,1495,1474,1741,-6.5569188999999986,106.7341856
191,6,2,F450,16116,-1.65,-2.62,-11.6,-5.34,293.28,315.03,0.05,0.02,0.6203924,0.003357708,0.4872519,7.85,11.84736,11,-13,1.12,0.61,1.12,0.21,200,4,554925400,14,224.07,2.923,269.8635,-0.02817385,0.03764817,-1.306638,-0.153867,-0.3539181,-9.630187,-9.635946,284,259,-210,-300,1401,1482,1659,-6.556918799999999,106.7341803
192,6,2,F450,16126,0.87,-2.44,-11.62,-5.81,281.84,299.92,0.05,0.02,0.5876373,0.003683984,0.4872519,7.85,11.81536,11,-7,1.12,0.61,1.12,0.21,180,4,554925600,14,224.13,3.033,272.3157,-0.008066275999999999,-0.04527967,-1.3115139999999998,0.07523169,0.2563979,-9.983648,-8.991323,198,322,-204,-292,1529,1549,1760,-6.5569185,106.734175
193,6,2,F450,16136,3.66,-0.01,-10.95,-5.77,276.96,285.52,0.05,0.01,0.5127941,0.002613842,0.4872519,7.85,11.80334,9,9,1.12,0.61,1.12,0.3,220,4,554925800,14,224.16,3.194,273.4446,0.2494763,0.008596195,-1.143439,-1.638572,0.2261148,-12.868,-12.3223,116,368,-200,-310,1548,1556,1703,-6.5569179,106.7341695
194,6,2,F450,16146,5.61,2.7,-10.17,-5.98,275.37,272.92,0.04,0.01,0.5027517,0.003375411,0.4872519,7.85,11.82789,3,19,1.12,0.61,1.12,0.21,200,4,554926000,14,224.22,3.142,275.6452,-0.03991399,-0.1630365,-0.9568583,-0.2578093,-0.4336745,-9.612041,-9.743335,33,371,-210,-304,1564,1570,1651,-6.5569171000000015,106.7341638
195,6,2,F450,16156,6.42,2.65,-9.23,-6.55,274.51,262.68,0.04,0.01,0.4920643,0.003904313,0.4872519,7.85,11.85089,-1,19,1.12,0.61,1.11,0.18,200,4,554926200,14,224.23,3.3080000000000003,276.7219,-0.21656420000000004,-0.01168002,-0.7067078,-0.4485759,-0.3677057,-10.19223,-9.068136,-48,372,-214,-301,1587,1594,1621,-6.5569163,106.7341581
196,6,2,F450,16166,6.98,1.39,-8.18,-6.3,273.76,255.65,0.05,0.01,0.4532936,0.00275743,0.4872519,7.85,11.8591,-6,2,1.12,0.61,1.11,0.19,200,4,554926400,14,224.25,3.556,279.1659,-0.05065728,-0.04724171,-0.3827372000000001,-0.3095283,-0.07903912,-9.909555,-8.864941,-102,372,-191,-282,1587,1596,1636,-6.5569152000000015,106.734152
197,6,2,F450,16176,7.69,1.02,-7.33,-6.35,273.02,252.31,0.05,0.02,0.4742951,0.003035247,0.4872519,7.85,11.8517,-8,3,1.12,0.61,1.11,0.2,200,4,554926600,14,224.28,3.723,279.5913,0.01281698,0.06317648,-0.06387165,0.04679184,-0.9918007,-9.882438,-8.806453999999997,-140,369,-186,-267,1571,1591,1630,-6.5569141,106.73414540000002
198,6,2,F450,16186,8.17,1.14,-7.06,-6.0,272.32,252.5,0.05,0.04,0.4768267,0.002748191,0.4872519,7.85,11.83751,-11,-1,1.12,0.61,1.11,0.19,200,4,554926800,14,224.25,3.816,280.1377,0.1333478,0.13398239999999995,0.1164405,-0.608146,-0.9693416,-10.49738,-8.492023,-148,362,-194,-286,1528,1607,1649,-6.5569129,106.73413870000002
199,6,2,F450,16196,7.94,1.86,-7.6,-5.05,271.6,254.68,0.05,0.06,0.4851359000000001,0.002160341,0.4872262,7.85,11.81385,-12,-9,1.12,0.61,1.11,0.18,180,4,554927000,14,224.22,3.844,279.5811,0.06760754,-0.05286377,0.28650590000000004,-0.361441,-0.9284949,-10.68078,-9.684819,-135,358,-194,-279,1496,1613,1662,-6.5569117,106.7341318
200,6,2,F450,16206,6.99,1.95,-8.53,-5.94,270.87,258.39,0.04,0.07,0.49992,0.003048211,0.487211,7.85,11.78389,-13,-8,1.12,0.61,1.11,0.21,220,4,554927200,14,224.14,3.835,280.5133,-0.006277581,-0.02621816,0.3424265,-0.4886111,-1.721177,-8.920856,-8.910331,-114,366,-202,-291,1543,1551,1650,-6.5569105,106.7341251
201,6,2,F450,16216,5.45,1.12,-9.23,-6.94,270.09,262.24,0.04,0.08,0.5002840999999999,0.003735602,0.487211,7.85,11.74876,-13,-16,1.12,0.61,1.11,0.22,200,4,554927400,14,224.07,3.991,281.1406,0.02714546,-0.114221,0.325856,-0.7602954000000001,-0.7102444,-9.343832,-9.190564,-95,377,-197,-289,1509,1568,1683,-6.5569092000000015,106.7341181
202,6,2,F450,16226,4.18,-0.25,-9.37,-7.33,269.33,265.94,0.05,0.09,0.5222019,0.004429102,0.487211,7.85,11.70275,-12,-10,1.12,0.61,1.1,0.18,200,4,554927600,14,224.02,4.203,279.8482,0.10875250000000003,-0.02644282,0.2388406,-0.5808071,-0.4528939,-9.061514,-8.737535000000001,-72,385,-184,-281,1507,1553,1706,-6.5569077999999985,106.7341108
203,6,2,F450,16236,3.3,-0.35,-9.3,-6.75,268.6,268.67,0.04,0.1,0.5605279000000001,0.004040658,0.487211,7.85,11.65835,-12,-11,1.12,0.61,1.09,0.2,200,4,554927800,14,223.91,4.182,280.3959,0.1141879,0.06134693,0.16942290000000002,-0.32414240000000005,-0.3458005,-9.991118,-9.894421,-54,392,-183,-284,1465,1577,1693,-6.5569065,106.7341032
204,6,2,F450,16246,2.27,1.17,-9.48,-6.05,267.88,270.36,0.05,0.1,0.5085089,0.002927423,0.487211,7.85,11.6167,-12,-24,1.12,0.62,1.09,0.25,200,4,554928000,14,223.84,4.146,280.6137,-0.07761768,0.03885124,0.0932951,-0.9233689,-1.375075,-8.893028999999997,-9.521914,-30,380,-195,-298,1504,1541,1722,-6.556905199999999,106.7340957
205,6,2,F450,16256,0.98,0.38,-9.75,-5.97,267.17,270.84,0.06,0.09,0.5525963,0.00307548,0.487211,7.85,11.56699,-11,-16,1.12,0.62,1.09,0.21,200,4,554928200,14,223.81,4.229,280.2763,-0.2599926,-0.18332920000000005,-0.005023902,-0.1803575,-0.2169653,-9.02963,-9.132268,-20,380,-203,-286,1501,1559,1718,-6.5569038,106.7340882
206,6,2,F450,16266,0.21,-2.14,-9.64,-7.36,266.45,270.32,0.05,0.07,0.529821,0.004692554,0.487211,7.85,11.51117,-10,-19,1.12,0.62,1.09,0.19,180,4,554928400,14,223.74,4.343,279.2289,-0.2240326,0.13771370000000002,-0.05460389,-1.446844,0.230541,-13.06897,-10.9075,-17,391,-187,-291,1500,1566,1735,-6.5569026,106.73408059999998
207,6,2,F450,16276,0.41,-2.21,-9.11,-7.13,265.79,269.25,0.04,0.07,0.5291116,0.004579484,0.487211,7.85,11.45322,-8,-12,1.12,0.62,1.09,0.19,220,4,554928600,14,223.69,4.167,279.0254,0.17295370000000002,0.1713674,-0.1270356,-0.622429,-0.8200216,-11.15937,-10.6938,-37,399,-179,-272,1505,1566,1702,-6.556901400000001,106.7340729
208,6,2,F450,16286,0.65,-0.17,-8.88,-4.83,265.19,267.6,0.04,0.07,0.5100754,0.001859605,0.4872816,7.85,11.41463,-9,-6,1.12,0.62,1.09,0.2,200,4,554928800,14,223.67,4.289,278.4844,0.14221589999999998,-0.1036988,-0.1453283,-0.4966733,-0.6001126999999999,-10.12157,-10.23629,-35,396,-189,-278,1481,1572,1689,-6.5569004,106.7340653
209,6,2,F450,16296,0.37,-0.19,-9.35,-5.3,264.66,265.9,0.05,0.07,0.4876947,0.002103895,0.4877196,7.85,11.38747,-10,-5,1.12,0.62,1.09,0.19,200,4,554929000,14,223.61,4.15,278.1431,-0.0978535,-0.1147635,-0.1634264,-0.9114789,-1.044616,-9.290712,-9.907907000000002,-41,381,-195,-283,1484,1561,1678,-6.556899400000002,106.7340577
210,6,2,F450,16306,0.06,-1.36,-9.97,-6.94,264.17,264.2,0.05,0.07,0.5119541,0.003843307,0.4877196,7.85,11.36653,-13,-2,1.13,0.62,1.08,0.2,180,4,554929200,13,223.54,4.294,277.5519,-0.1461284,-0.14637550000000002,-0.1300568,-1.036135,0.002895519,-11.47005,-10.86277,-64,394,-192,-274,1475,1561,1664,-6.5568985,106.7340501
211,6,2,F450,16316,0.11,-1.31,-9.95,-8.29,263.72,262.74,0.06,0.07,0.4583042000000001,0.004925102,0.4877196,7.85,11.34253,-15,-6,1.13,0.62,1.08,0.17,200,4,554929400,13,223.44,4.311,276.0248,-0.1356427,-0.01627645,-0.09425806,-1.054751,-0.2407426,-9.073839,-9.337012,-81,395,-174,-273,1477,1562,1677,-6.5568977,106.7340422
212,6,2,F450,16326,0.26,-1.56,-9.54,-7.23,263.32,261.8,0.05,0.07,0.4518729,0.003848821,0.4877196,7.85,11.31102,-16,-5,1.13,0.62,1.08,0.2,200,4,554929600,13,223.4,4.437,275.9847,0.2094167,0.2147757,0.00024207,-0.3066862,-1.241025,-8.808644000000003,-8.3375,-79,397,-173,-256,1480,1544,1627,-6.556897099999999,106.7340342
213,6,2,F450,16336,-0.14,1.06,-9.39,-5.11,262.96,262.05,0.05,0.07,0.4529479,0.001944661,0.4877196,7.85,11.28153,-18,-5,1.13,0.62,1.07,0.18,200,4,554929800,13,223.36,4.36,274.9544,0.08031883,0.1927395,0.07097013,-0.6042932,-0.8796936,-10.94497,-10.54995,-81,389,-177,-274,1427,1548,1622,-6.5568964,106.73402620000002
214,6,2,F450,16346,-1.4,1.38,-10.06,-3.8,262.62,262.79,0.05,0.08,0.4554291,0.001140296,0.4869329000000001,7.85,11.25615,-20,-8,1.13,0.62,1.07,0.21,200,4,554930000,13,223.25,4.27,274.5049,-0.2843197,-0.1954694,0.05548656,-0.1620748,-0.5564249,-10.37033,-9.236399,-71,376,-196,-279,1441,1521,1623,-6.5568959000000016,106.7340184
215,6,2,F450,16356,-2.64,-2.06,-11.05,-6.35,262.27,262.9,0.05,0.07,0.4995647,0.0033955870000000003,0.4866131,7.85,11.20181,-19,-12,1.13,0.62,1.07,0.18,220,4,554930200,13,223.15,4.235,274.5873,-0.08351582,-0.1985223,-0.05103625,-0.9179588,-0.4255266,-9.996521,-9.320656,-65,386,-183,-263,1435,1544,1655,-6.5568954,106.7340107
216,6,2,F450,16366,-2.42,-2.59,-11.5,-7.68,261.97,262.29,0.05,0.07,0.478999,0.004886895,0.4866131,7.85,11.13651,-16,-17,1.13,0.62,1.06,0.19,180,4,554930400,13,223.07,4.444,272.7212,-0.1955701,-0.2037334,-0.1103942,-0.8659735000000001,-0.6597759,-9.020002,-8.348403999999999,-70,402,-164,-271,1456,1547,1652,-6.556895,106.7340029
217,6,2,F450,16376,-1.02,-2.71,-11.53,-9.73,261.81,260.96,0.05,0.07,0.4929996,0.007649839,0.4866131,7.85,11.07442,-13,-22,1.13,0.62,1.05,0.18,200,4,554930600,13,223.01,4.479,271.2317,0.1284263,-0.1258751,-0.06580961,-1.798872,-0.157935,-10.84326,-10.35501,-96,394,-156,-248,1449,1596,1689,-6.5568949000000005,106.7339948
218,6,2,F450,16386,-0.05,0.56,-10.88,-9.83,261.76,260.34,0.05,0.08,0.4997199000000001,0.007609934,0.4866131,7.85,11.01858,-11,-14,1.13,0.62,1.05,0.21,200,4,554930800,13,222.94,4.5710000000000015,271.5331,0.3356804,0.3991858,0.05673682,-0.07507789,-0.6952478,-11.02331,-9.662466,-110,391,-161,-252,1472,1583,1651,-6.5568948,106.7339866
219,6,2,F450,16396,-1.0,3.66,-10.19,-5.85,261.76,261.33,0.05,0.09,0.4927839,0.003726631,0.4866131,7.85,10.97183,-10,-11,1.13,0.62,1.05,0.24,200,4,554931000,13,222.92,4.505,271.5741,-0.1236026,0.3559982,0.09013078,-0.3509571,0.05268432,-10.93385,-9.658465,-90,381,-192,-288,1476,1566,1600,-6.5568946,106.7339783
220,6,2,F450,16406,-3.35,0.83,-10.9,-3.29,261.72,262.64,0.05,0.09,0.481522,0.000871658,0.486594,7.85,10.94312,-10,-8,1.13,0.62,1.05,0.21,220,4,554931200,13,222.88,4.52,271.7505,-0.2097748,-0.102291,0.1051029,-1.82581,-0.5502248000000001,-10.16498,-9.921288,-67,378,-205,-285,1432,1569,1625,-6.5568944,106.73397
221,6,2,F450,16416,-5.17,-0.64,-12.61,-4.95,261.58,264.21,0.05,0.09,0.4839136,0.00185746,0.4864068,7.85,10.93894,-13,-10,1.13,0.62,1.05,0.2,180,4,554931400,13,222.79,4.372,273.0837,-0.03977389,-0.09938527,0.1132364,-2.324196,-0.07123838,-12.03237,-11.52171,-61,388,-191,-261,1425,1540,1629,-6.556894099999999,106.733962
222,6,2,F450,16426,-6.44,-0.41,-13.98,-6.1,261.39,265.34,0.05,0.09,0.4496199000000001,0.002525568,0.4863962000000001,7.85,10.96064,-18,-17,1.13,0.62,1.05,0.28,200,4,554931600,13,222.72,4.12,273.1031,-0.005246356999999999,0.0611406,0.02546043,-0.7694491999999999,-0.7668478,-10.4166,-9.697205,-56,386,-182,-281,1453,1495,1598,-6.556893700000002,106.7339543
223,6,2,F450,16436,-7.6,-2.32,-14.76,-6.44,261.19,265.69,0.06,0.09,0.4802843,0.003390998,0.4863962000000001,7.85,10.98247,-24,-19,1.13,0.62,1.05,0.2,200,4,554931800,13,222.58,4.359,272.0427,-0.3330161,-0.16874070000000002,0.007041011,-1.296885,0.01061551,-10.50732,-11.41111,-59,396,-175,-276,1390,1535,1624,-6.5568935,106.73394640000002
224,6,2,F450,16446,-7.68,-4.95,-15.52,-8.22,261.0,265.61,0.08,0.08,0.4599503,0.006549656,0.4863962000000001,7.85,11.00107,-29,-28,1.13,0.62,1.04,0.22,200,4,554932000,13,222.46,4.186,270.5888,-0.01555552,-0.2585214,-0.02502448,-0.942637,0.7437564,-9.040876,-9.602507,-60,403,-160,-242,1379,1547,1632,-6.556893400000001,106.7339386
225,6,2,F450,16456,-6.62,-4.18,-16.01,-10.45,260.91,265.36,0.08,0.08,0.5093145,0.01026624,0.4863962000000001,7.85,10.99774,-31,-28,1.13,0.62,1.04,0.18,200,4,554932200,13,222.32,4.545,269.2165,0.2722996,-0.1663417,-0.06627712,-1.052956,0.02445229,-8.5971,-8.239791,-63,408,-140,-243,1447,1517,1620,-6.5568936,106.7339308
226,6,2,F450,16466,-5.6,-2.28,-15.69,-11.55,260.97,264.67,0.09,0.08,0.4820234000000001,0.0104236,0.4863962000000001,7.85,10.96855,-32,-34,1.13,0.62,1.03,0.2,200,4,554932400,13,222.21,4.567,268.4733,0.01007588,0.086735,-0.1026821,-0.9120793,-0.9430383,-10.82573,-9.55551,-79,407,-153,-253,1430,1569,1644,-6.556893799999999,106.7339226
227,6,2,F450,16476,-4.91,-2.68,-14.94,-10.15,261.13,263.52,0.1,0.08,0.4908421,0.008369505,0.4863962000000001,7.85,10.91975,-30,-32,1.13,0.62,1.03,0.2,200,4,554932600,13,222.06,4.577,266.3414,-0.18003339999999998,0.006827485,-0.07668921,-1.3957469999999998,-0.4598068,-10.15791,-11.10191,-79,402,-158,-250,1428,1574,1608,-6.5568943,106.7339143
228,6,2,F450,16486,-3.75,-3.65,-14.56,-10.36,261.37,262.53,0.09,0.08,0.4942447,0.009297103,0.4863962000000001,7.85,10.87041,-29,-29,1.13,0.62,1.03,0.2,220,4,554932800,13,221.94,4.82,264.7022,0.0196268,-0.19940410000000006,-0.09074318,-1.62819,-0.7318861,-10.10054,-10.11674,-89,403,-151,-241,1415,1593,1635,-6.5568951,106.7339059
229,6,2,F450,16496,-1.68,-3.09,-14.11,-12.39,261.7,261.92,0.09,0.08,0.4654566,0.01194224,0.4863962000000001,7.85,10.83473,-29,-25,1.13,0.62,1.02,0.19,200,4,554933000,13,221.8,4.524,263.9415,0.26974190000000003,-0.07618113,0.01774145,-0.5952607,0.1014145,-8.845483,-8.6703,-95,409,-145,-252,1438,1576,1646,-6.556896000000001,106.7338975
230,6,2,F450,16506,0.48,-0.97,-12.96,-11.89,262.19,262.32,0.08,0.09,0.4781495,0.01071569,0.4863962000000001,7.85,10.79463,-29,-21,1.13,0.62,1.02,0.2,200,4,554933200,13,221.69,5.017,263.1089,0.1999403,0.333168,0.08271562,-0.857585,-1.1722860000000002,-11.24285,-10.25741,-100,406,-144,-259,1451,1558,1620,-6.556897099999999,106.7338889
231,6,2,F450,16516,1.72,1.21,-12.08,-9.24,262.77,263.32,0.11,0.1,0.4419715,0.005843937,0.4863962000000001,7.85,10.75523,-29,-27,1.13,0.62,1.02,0.2,180,4,554933400,13,221.55,4.731,262.9082,0.2130226,0.1476523,0.08796253,-0.5943166999999999,0.5408980999999999,-9.185953,-8.755197,-90,395,-161,-267,1399,1569,1600,-6.5568982,106.7338801
232,6,2,F450,16526,1.75,1.99,-12.54,-7.66,263.37,264.3,0.12,0.1,0.4662595000000001,0.004456222,0.4863962000000001,7.85,10.72923,-31,-25,1.13,0.62,1.02,0.24,200,4,554933600,13,221.44,4.904,263.4611,0.03641224,-0.15530639999999998,0.08208737,-1.2027290000000002,-0.8670049999999999,-9.333677,-9.186405,-79,386,-186,-274,1394,1559,1580,-6.5568992,106.7338715
233,6,2,F450,16536,1.42,1.84,-13.17,-10.47,263.91,265.07,0.14,0.1,0.4877465,0.008413076,0.4863962000000001,7.85,10.71728,-33,-35,1.13,0.62,1.02,0.21,200,4,554933800,13,221.3,4.663,262.4641,-0.1254684,-0.3242784,0.09686193,-1.521498,0.16127470000000002,-10.56375,-9.863722,-79,383,-185,-279,1412,1554,1605,-6.556900200000001,106.7338628
234,6,2,F450,16546,1.32,1.07,-12.76,-13.16,264.35,265.77,0.13,0.1,0.5278678000000001,0.01453906,0.4863962000000001,7.85,10.68356,-34,-35,1.13,0.62,1.01,0.2,220,4,554934000,13,221.11,4.841,261.8907,-0.09932785,-0.1033486,0.009730405,-2.587719,-0.7620816999999999,-8.860315,-8.831984,-76,389,-185,-264,1498,1508,1635,-6.556901400000001,106.7338543
235,6,2,F450,16556,1.69,1.05,-11.12,-12.49,264.73,266.08,0.14,0.11,0.5109659000000001,0.0126608,0.4863962000000001,7.85,10.6134,-31,-36,1.13,0.62,1.01,0.2,180,4,554934200,13,220.94,5.125,262.2265,0.09736724,0.2942886,0.01575128,-1.385204,-0.448876,-10.58521,-10.25347,-81,388,-163,-270,1468,1567,1665,-6.5569026,106.7338453
236,6,2,F450,16566,2.36,1.4,-9.53,-9.67,265.1,266.49,0.12,0.11,0.5017636,0.007423401,0.4863962000000001,7.85,10.51322,-25,-35,1.13,0.62,1.01,0.19,200,4,554934400,13,220.79,4.839,262.1298,0.14661459999999998,0.2201754,0.01953391,-2.06649,-0.5304123000000001,-10.79477,-10.83533,-67,383,-180,-284,1455,1587,1653,-6.5569038,106.7338365
237,6,2,F450,16576,2.97,2.3,-8.58,-7.28,265.51,267.25,0.11,0.11,0.5010131,0.004482925,0.4863962000000001,7.85,10.40414,-18,-25,1.13,0.62,1.01,0.2,200,4,554934600,13,220.67,4.992,263.2867,0.06416627,0.06979507,0.1049327,-1.535854,-0.4168583,-9.915502,-9.818313,-60,383,-188,-278,1432,1585,1646,-6.5569048,106.7338275
238,6,2,F450,16586,3.18,2.43,-8.19,-6.42,265.9,268.49,0.12,0.11,0.4709616,0.003360987,0.4863962000000001,7.85,10.32004,-13,-17,1.13,0.62,1.0,0.23,220,4,554934800,13,220.56,4.783,263.7184,-0.01661269,-0.02551559,0.093426,-1.514215,0.02918662,-8.899434,-10.26001,-40,390,-199,-288,1453,1548,1653,-6.5569057,106.7338189
239,6,2,F450,16596,2.93,3.3,-8.02,-6.31,266.26,269.68,0.12,0.1,0.4634086,0.003493935,0.4863962000000001,7.85,10.27788,-13,-13,1.12,0.62,1.0,0.22,200,4,554935000,14,220.46,4.711,264.2108,0.08095454,0.01898256,0.06004854,-1.650898,-0.2868595,-8.741622,-8.139334,-32,384,-200,-296,1452,1534,1637,-6.5569064,106.7338102
240,6,2,F450,16606,2.3,3.06,-7.53,-6.49,266.53,270.39,0.11,0.1,0.4626716,0.003641367,0.4863962000000001,7.85,10.25277,-14,-11,1.13,0.62,1.0,0.2,180,4,554935200,13,220.39,4.655,264.2458,-0.17131939999999998,0.11195739999999997,0.03402704,-1.059354,-0.4997905,-10.89948,-9.447566,-24,382,-199,-285,1418,1549,1651,-6.5569072,106.7338017
241,6,2,F450,16616,1.73,2.3,-6.71,-5.67,266.71,270.71,0.09,0.09,0.4801439,0.002786398,0.4863962000000001,7.85,10.22955,-15,-8,1.13,0.62,1.0,0.23,200,4,554935400,13,220.34,4.276,265.4113,-0.1684126,0.1577363,-0.004628032,-1.902069,-0.6671467,-11.12763,-10.15658,-14,390,-200,-295,1379,1569,1657,-6.556907700000001,106.73379380000002
242,6,2,F450,16626,1.58,0.8,-5.97,-4.02,266.83,270.78,0.07,0.09,0.4782713,0.00124532,0.4862592000000001,7.85,10.20673,-16,-13,1.13,0.62,1.0,0.21,200,4,554935600,13,220.29,4.416,265.8483,-0.05945773,0.1128188,0.02602546,-1.221582,-0.05788266,-11.06437,-10.58166,-14,391,-190,-281,1384,1554,1645,-6.5569082,106.7337858
243,6,2,F450,16636,1.99,1.49,-5.77,-2.4,266.92,271.22,0.08,0.09,0.4787642,0.0005649030000000001,0.4858088,7.85,10.18364,-17,-11,1.13,0.62,1.0,0.2,200,4,554935800,13,220.22,4.046,265.5022,0.3049717,0.05188053,0.03305378,-0.8522072,-0.6126971999999999,-9.055772,-8.304625999999999,0,396,-187,-278,1367,1553,1606,-6.5569088,106.733778
244,6,2,F450,16646,2.06,2.69,-6.18,-2.96,266.99,271.93,0.09,0.09,0.4592417,0.001151681,0.4854433,7.85,10.16491,-19,-18,1.13,0.62,0.99,0.23,200,4,554936000,13,220.13,3.76,264.982,0.01780005,0.0841926,0.1243763,-1.852528,-0.6426430000000001,-12.0628,-11.32266,0,386,-197,-289,1379,1545,1629,-6.5569093999999986,106.7337709
245,6,2,F450,16656,1.48,2.82,-6.13,-2.48,266.99,273.16,0.1,0.09,0.4917396,0.001051128,0.4851641,7.85,10.14192,-19,-19,1.13,0.62,1.0,0.2,220,4,554936200,13,220.12,3.689,267.3306,0.05246375,0.07413428,0.1030513,-0.32897170000000003,-0.01494813,-9.13546,-9.150746,6,381,-200,-295,1368,1546,1616,-6.556909700000001,106.7337641
246,6,2,F450,16666,0.62,2.69,-5.89,-2.36,266.93,273.95,0.09,0.08,0.4959172000000001,0.001022279,0.4851648,7.85,10.10876,-19,-23,1.13,0.62,0.99,0.27,180,4,554936400,13,220.02,3.205,267.208,-0.1707881,-0.14693599999999998,0.06667998,-1.589684,-0.5087103000000001,-10.20294,-10.04999,17,381,-201,-293,1395,1539,1636,-6.5569099,106.7337578
247,6,2,F450,16676,0.05,1.39,-5.39,-3.43,266.81,274.71,0.09,0.08,0.5117604,0.001065135,0.4854703,7.85,10.07167,-17,-24,1.13,0.62,0.99,0.19,200,4,554936600,13,219.84,3.188,267.0969,-0.02577268,0.03157018,0.09005426,-1.391876,-0.8384334999999999,-10.58186,-9.656613,23,391,-194,-294,1419,1525,1658,-6.5569102,106.73375190000002
248,6,2,F450,16686,-0.26,1.06,-4.27,-2.92,266.51,275.58,0.12,0.08,0.5477510999999999,0.000850976,0.4858855,7.85,10.01961,-15,-20,1.13,0.62,0.99,0.2,200,4,554936800,13,219.78,3.133,267.1004,0.0302756,0.2176936,0.05133379,-0.07667302,-0.9408305,-9.824228,-8.824585,27,393,-191,-285,1384,1513,1640,-6.5569104000000005,106.7337462
249,6,2,F450,16696,-0.36,0.77,-3.34,-1.54,266.13,275.87,0.11,0.08,0.5428599000000001,0.00028187,0.4867686,7.85,9.94141,-9,-27,1.13,0.62,0.99,0.29,200,4,554937000,13,219.71,2.797,267.1758,-0.07380941,0.14305479999999998,-0.02582503,-2.467721,-0.0054527,-9.732209,-9.41861,37,390,-183,-286,1325,1540,1633,-6.5569107,106.7337407
250,6,2,F450,16706,-0.29,1.12,-2.88,-0.57,265.74,275.73,0.09,0.07,0.6380129,0.000161707,0.4884047,7.85,9.844669,-2,-36,1.13,0.62,0.99,0.23,220,4,554937200,13,219.62,2.596,267.1044,0.001439485,-0.04714913,-0.07826861,-1.865185,-0.8750924000000001,-9.955387,-9.567067,42,384,-182,-278,1387,1496,1631,-6.556911,106.7337357
251,6,2,F450,16716,-0.31,1.67,-2.48,-0.99,265.33,274.92,0.09,0.07,0.6842204000000001,0.000448465,0.4910223,7.85,9.725334,7,-45,1.13,0.62,0.99,0.24,180,4,554937400,13,219.56,2.533,265.5578,-0.07695969,-0.04126596,-0.1030634,-1.322994,-0.88666,-10.84315,-10.29845,35,389,-196,-290,1396,1499,1631,-6.5569114,106.733731
252,6,2,F450,16726,-0.5,1.13,-1.81,-1.6,264.85,273.52,0.08,0.07,0.7076111999999999,0.000429332,0.4945371,7.85,9.593955,19,-51,1.13,0.62,0.99,0.23,220,4,554937600,13,219.45,2.125,266.0458,0.06412139,0.09110002,-0.1659129,-0.9162388,-0.7024709,-11.49732,-10.44661,23,396,-197,-298,1395,1498,1615,-6.5569117,106.7337267
253,6,2,F450,16736,-0.61,0.26,-0.84,-1.01,264.28,271.86,0.07,0.06,0.709491,0.000121951,0.4986478,7.85,9.447089,32,-49,1.13,0.62,0.99,0.25,180,4,554937800,13,219.32,2.033,263.7182,-0.005325982,0.07503806,-0.1192673,-0.6881076999999999,-0.2844369,-10.63179,-9.927364,18,395,-183,-275,1444,1528,1657,-6.5569121,106.7337229
254,6,2,F450,16746,-0.32,0.48,0.37,-0.68,263.75,270.47,0.08,0.06,0.7703183000000001,0.000103116,0.503208,7.85,9.304384,44,-43,1.13,0.63,0.99,0.27,200,4,554938000,13,219.23,2.2230000000000003,265.0829,0.02232485,-0.01147278,-0.07631341,-0.6240265,-0.731581,-10.50082,-9.07214,11,395,-189,-287,1431,1571,1678,-6.5569125,106.7337189
255,6,2,F450,16756,-0.16,0.18,1.53,-0.23,263.33,269.63,0.08,0.06,0.770347,1.65e-05,0.5081544,7.85,9.142206,59,-36,1.13,0.63,0.99,0.24,220,4,554938200,13,219.15,2.166,265.357,-0.08466557,0.125184,-0.02562208,-0.4079078,-0.03883049,-9.128527,-9.37875,2,388,-184,-286,1437,1576,1688,-6.556912700000002,106.733715
256,6,2,F450,16766,0.13,0.17,2.66,1.03,263.21,269.42,0.1,0.07,0.7793491,0.000127733,0.5134207000000001,7.85,8.967189999999997,75,-29,1.13,0.63,0.99,0.25,180,4,554938400,13,219.1,1.386,265.249,0.1978996,0.04139744,-0.0316257,-0.8774360999999999,-0.2235056,-11.76393,-11.20749,-6,400,-185,-277,1453,1553,1682,-6.5569130000000015,106.7337117
257,6,2,F450,16776,0.42,1.08,4.36,1.2,263.18,269.29,0.09,0.06,0.8156876000000001,0.000347257,0.5190849000000001,7.85,8.801122,91,-27,1.13,0.63,1.0,0.25,200,4,554938600,13,219.12,1.418,264.8831,-0.09139375,-0.01672602,-0.07449796,-1.139019,-0.7557647,-13.27085,-13.56184,11,394,-183,-294,1452,1573,1700,-6.5569131999999986,106.7337092
258,6,2,F450,16786,0.58,0.18,6.41,1.49,263.17,268.4,0.13,0.06,0.8145627,0.000282645,0.5250451999999999,7.85,8.648538,105,-12,1.13,0.63,1.0,0.23,200,4,554938800,13,219.1,1.087,265.2034,-0.2142664,0.01497587,-0.07884918,-0.9634208,-0.3167632,-10.74426,-10.99862,3,392,-179,-290,1497,1565,1706,-6.5569134999999985,106.7337067
259,6,2,F450,16796,0.85,-0.44,7.3,1.16,263.17,267.42,0.12,0.06,0.7912853,0.000200272,0.5308453000000001,7.85,8.536491,114,0,1.13,0.63,1.01,0.23,200,4,554939000,13,219.11,0.973,259.2786,0.1133223,-0.15927829999999998,-0.06714585,0.5158436,-0.4081078,-11.44954,-10.55139,1,400,-180,-282,1524,1569,1714,-6.5569137999999985,106.7337048
260,6,2,F450,16806,1.26,0.1,8.1,-0.41,263.17,266.88,0.11,0.06,0.7661934,2.34e-05,0.5361495,7.85,8.458558,120,19,1.13,0.63,1.01,0.19,220,4,554939200,13,219.15,0.8190001,257.784,-0.1297841,-0.2684555,0.04502489,0.0522529,-0.1244465,-11.35978,-12.24035,-17,396,-183,-297,1549,1602,1757,-6.5569143,106.7337034
261,6,2,F450,16816,1.69,-0.39,9.49,-1.51,263.17,267.88,0.1,0.06,0.6950752,0.000267386,0.5404656999999999,7.85,8.426855999999999,122,42,1.13,0.63,1.01,0.26,180,4,554939400,13,219.15,0.305,255.6472,-0.07663766,0.06762288,0.1936709,-0.7018226,-0.0839516,-12.10125,-11.7011,-12,407,-170,-293,1566,1579,1773,-6.5569148,106.7337023
262,6,2,F450,16826,2.9,-0.65,11.28,-1.25,263.17,269.97,0.09,0.07,0.6297475,0.00018549,0.5426137,7.85,8.438526,121,61,1.13,0.63,1.01,0.28,200,4,554939600,13,219.26,0.44,253.7985,0.1857062,-0.05177749,0.08087638,0.26215759999999994,-0.6119484000000001,-9.305905,-9.970318,-7,406,-170,-291,1531,1586,1793,-6.556914999999999,106.7337017
263,6,2,F450,16836,4.39,2.01,12.48,0.57,263.17,270.94,0.13,0.08,0.6367387,0.000457704,0.5426137,7.85,8.492004,116,79,1.13,0.63,1.01,0.32,200,4,554939800,13,219.41,0.735,251.6936,0.2682031,0.2279179,-0.07171652,-0.5180266,-0.6714929000000001,-10.96863,-10.7398,8,389,-169,-300,1546,1526,1769,-6.556915400000001,106.7337006
264,6,2,F450,16846,4.4,3.96,12.16,2.65,263.17,269.72,0.12,0.07,0.6162776,0.002112746,0.5426137,7.85,8.561254,109,77,1.13,0.64,1.02,0.31,220,4,554940000,13,219.56,0.436,250.8442,-0.16310929999999998,0.01099523,-0.1904223,0.1588726,-0.609858,-11.96166,-10.75775,20,384,-194,-315,1533,1554,1749,-6.5569159,106.7336995
265,6,2,F450,16856,3.13,1.91,11.24,1.16,263.17,267.25,0.12,0.06,0.5718948,0.000434399,0.5426137,7.85,8.643944,101,82,1.13,0.64,1.02,0.3,200,4,554940200,13,219.76,0.423,247.9585,-0.3449033,-0.1536119,-0.2092052,-0.1877086,0.002367823,-12.65415,-11.01899,6,387,-197,-308,1579,1524,1765,-6.5569163,106.7336983
266,6,2,F450,16866,2.51,-1.85,11.99,-0.6,263.17,264.3,0.11,0.05,0.5537907,0.00031811,0.5426137,7.85,8.737385,92,90,1.13,0.64,1.02,0.31,200,4,554940400,13,220.0,0.563,261.816,-0.2605048,0.3120762,-0.2784609,0.1821374,0.2917294,-11.0533,-10.49708,-26,400,-172,-275,1508,1587,1754,-6.556916499999999,106.733697
267,6,2,F450,16876,3.51,-4.18,13.94,1.02,263.17,260.88,0.1,0.04,0.5047024,0.001409531,0.5426137,7.85,8.837645,81,86,1.12,0.64,1.02,0.27,200,4,554940600,14,220.3,0.364,256.823,-0.04233151,0.348291,-0.2575168,0.08127964,-0.2820003,-10.40514,-9.758188,-36,410,-156,-260,1502,1585,1747,-6.5569168000000015,106.7336956
268,6,2,F450,16886,6.1,-3.2,15.37,4.66,263.17,258.33,0.1,0.04,0.4733697,0.002282947,0.5426137,7.85,8.960346000000003,69,85,1.12,0.64,1.02,0.25,180,4,554940800,14,220.49,0.401,213.8793,0.3466457000000001,0.3603947,-0.1205794,-0.33896,-0.5991841,-9.684688,-9.940512,-46,404,-151,-268,1499,1570,1694,-6.5569174,106.733695
269,6,2,F450,16896,8.53,0.54,15.2,8.78,263.17,257.31,0.1,0.04,0.4818377,0.005671918000000001,0.5426137,7.85,9.095066,55,69,1.17,0.64,1.02,0.24,200,4,554941000,13,220.66,0.512,184.6759,0.35164670000000003,-0.0268445,-0.01378779,0.9951864,-0.748184,-8.386616,-8.447985000000001,-49,388,-171,-271,1543,1514,1695,-6.5569182,106.7336949
270,6,2,F450,16906,8.74,2.45,12.94,7.71,263.17,257.24,0.12,0.03,0.4993928,0.005016595,0.5426137,7.85,9.19508,45,55,1.12,0.64,1.02,0.24,220,4,554941200,14,220.81,0.395,168.111,-0.03456718,-0.4342735,0.03798943,0.6738586,0.04492187,-9.798752,-9.933473,-37,381,-203,-306,1544,1530,1696,-6.5569190000000015,106.7336946
271,6,2,F450,16916,7.11,1.59,9.57,3.53,263.17,257.52,0.12,0.03,0.4901161,0.001132995,0.5424237,7.85,9.265656,38,45,1.12,0.64,1.02,0.24,180,4,554941400,14,221.0,0.374,153.7678,-0.1625289,-0.3653972,0.06914786,-0.3445426,-0.2889913,-11.96237,-12.2034,-57,376,-198,-297,1561,1500,1708,-6.5569196,106.7336946
272,6,2,F450,16926,5.1,1.16,7.04,0.87,263.17,258.27,0.11,0.04,0.499194,0.00018537,0.5416193,7.85,9.319755,33,36,1.12,0.64,1.02,0.21,200,4,554941600,14,221.11,0.642,114.3589,-9.34e-05,-0.1511308,0.03886589,-0.08683018,-0.7520063,-8.760077,-7.984563,-64,386,-189,-272,1499,1555,1707,-6.5569201,106.7336951
273,6,2,F450,16936,2.96,2.28,5.85,0.26,263.17,259.1,0.09,0.05,0.5090266,0.000403047,0.5408177,7.85,9.365219,28,27,1.12,0.64,1.02,0.17,220,4,554941800,14,221.18,0.499,119.7851,-0.1625527,-0.09830021,0.1153338,0.3732997,-0.6013857,-10.35715,-10.17349,-74,381,-195,-302,1511,1534,1704,-6.556920699999999,106.7336953
274,6,2,F450,16946,0.55,0.21,5.37,-1.15,263.17,260.25,0.12,0.06,0.5029498,9.32e-05,0.5399923000000001,7.85,9.39441,26,25,1.12,0.64,1.02,0.22,200,4,554942000,14,221.29,0.457,116.8424,-0.3138073,-0.0343534,0.09815351,-0.4231425999999999,-0.2708272,-10.13206,-8.940392999999998,-68,385,-188,-283,1503,1526,1705,-6.5569212,106.7336959
275,6,2,F450,16956,-1.31,-2.36,5.18,-2.24,263.17,260.95,0.11,0.06,0.520695,0.000866115,0.5393265,7.85,9.409764,24,22,1.12,0.64,1.02,0.17,180,4,554942200,14,221.42,0.502,131.293,-0.1854689,0.01628813,0.05362867,-0.5012611,0.09928189,-12.30994,-11.7324,-53,396,-156,-257,1556,1488,1724,-6.5569218,106.7336958
276,6,2,F450,16966,-2.28,-2.83,5.53,-1.1,263.17,261.42,0.11,0.07,0.5231734,0.000760496,0.5389079000000001,7.85,9.421703,23,18,1.12,0.64,1.02,0.17,220,4,554942400,14,221.5,0.691,135.6603,0.02612902,0.3189646,0.06131432,0.829074,-0.09153636,-10.14143,-9.096695,-67,400,-159,-259,1524,1534,1715,-6.5569227,106.7336962
277,6,2,F450,16976,-3.23,-3.33,5.47,0.7,263.17,261.95,0.1,0.07,0.5254955,0.000924945,0.5385572,7.85,9.434407,21,24,1.12,0.64,1.02,0.16,200,4,554942600,14,221.58,0.652,148.2419,-0.04210796,0.007392029,0.1006159,-0.4946998,0.3032077,-11.65033,-10.59267,-51,401,-161,-266,1536,1518,1712,-6.5569237000000005,106.7336965
278,6,2,F450,16986,-3.89,-3.84,5.05,-0.5,263.17,262.99,0.11,0.07,0.4711943,0.001132131,0.5381185,7.85,9.449856,20,15,1.12,0.63,1.02,0.15,200,4,554942800,14,221.65,0.775,155.9341,0.06598189,-0.118021,0.08721574,-0.17903010000000005,0.2120793,-10.60797,-11.54306,-48,411,-151,-251,1555,1474,1732,-6.556925,106.7336963
279,6,2,F450,16996,-4.28,-4.07,4.7,-0.91,263.17,263.77,0.11,0.08,0.517442,0.001388609,0.5376213000000001,7.85,9.470477,17,16,1.12,0.63,1.02,0.14,200,4,554943000,14,221.78,0.9680001,159.5977,-0.02545746,0.08523323,0.02026262,0.6732964,-0.0718577,-10.72474,-10.28663,-44,414,-151,-255,1513,1514,1747,-6.5569265,106.7336966
280,6,2,F450,17006,-4.61,-4.6,4.89,-0.28,263.17,263.49,0.09,0.07,0.489309,0.001593977,0.5371066999999999,7.85,9.48314,16,12,1.13,0.63,1.01,0.12,200,4,554943200,13,221.87,1.1909999999999998,163.689,-0.04705148,0.2166053,-0.06785189,0.03495746,-1.346509,-9.477198,-8.619452,-35,409,-156,-255,1524,1505,1747,-6.5569285000000015,106.7336965
281,6,2,F450,17016,-4.76,-5.54,4.97,0.83,261.71,262.49,0.08,0.06,0.5158494,0.002382278,0.5369164000000001,7.85,9.497565,14,18,1.13,0.63,1.01,0.12,180,4,554943400,13,221.97,1.204,166.5215,-0.07991409,0.0213439,-0.13672679999999998,-0.3340037,1.3435,-12.60713,-11.87039,-33,420,-139,-246,1494,1517,1735,-6.556930800000001,106.7336961
282,6,2,F450,17026,-4.94,-4.36,4.4,1.28,251.59,259.87,0.08,0.05,0.5132144000000001,0.0016497970000000002,0.5368125,7.85,9.508039,12,14,1.13,0.62,1.0,0.12,200,4,554943600,13,222.08,1.442,161.3252,0.2970114,0.18643370000000006,-0.4931228,-0.2168913,-0.08709286,-10.2455,-9.352356,-41,417,-134,-253,1469,1435,1790,-6.5569332,106.7336966
283,6,2,F450,17036,-5.86,-2.66,3.01,2.65,239.59,253.2,0.08,0.04,0.5259998,0.001157403,0.5365148,7.85,9.50668,12,4,1.13,0.62,1.0,0.12,200,4,554943800,13,222.16,1.4680000000000002,160.4144,0.05182816,0.1048473,-0.8237618,0.7842965999999999,0.17511400000000002,-11.08974,-9.721283,-64,397,-156,-273,1421,1464,1782,-6.5569357,106.7336971
284,6,2,F450,17046,-7.57,-3.48,0.36,2.04,227.59,242.93,0.09,0.03,0.5272079000000001,0.0013356210000000002,0.5365204,7.85,9.504225,12,7,1.13,0.62,1.0,0.2,220,4,554944000,13,222.23,1.435,162.7993,-0.1430968,-0.2620235,-1.088261,0.3818049000000001,0.8000109999999999,-11.2267,-9.929652,-126,384,-170,-272,1521,1393,1751,-6.5569381999999985,106.7336973
285,6,2,F450,17056,-8.51,-5.0,-3.37,-1.45,215.59,229.91,0.09,0.04,0.5318432,0.00225836,0.5365769,7.85,9.512465,11,11,1.13,0.62,1.0,0.15,200,4,554944200,13,222.29,1.908,163.9133,-0.08338073,-0.2192446,-1.297847,0.4376113,-0.5664044,-11.20078,-10.57639,-210,351,-150,-248,1484,1459,1788,-6.5569412,106.7336973
286,6,2,F450,17066,-7.8,-4.68,-6.72,-5.24,203.59,215.05,0.09,0.05,0.5333302,0.003948569,0.5365741,7.85,9.524702,9,8,1.13,0.62,1.0,0.13,200,4,554944400,13,222.33,1.87,165.6374,0.05443146,-0.2524388,-1.4149969999999998,0.2994775,-0.6251743000000001,-9.122936,-8.138987,-294,297,-137,-237,1526,1447,1744,-6.5569446,106.7336975
287,6,2,F450,17076,-6.06,-2.56,-8.97,-6.83,191.59,199.23,0.1,0.07,0.5291616,0.004336834,0.5365741,7.85,9.524346,8,6,1.13,0.61,0.99,0.18,200,4,554944600,13,222.31,1.96,168.6444,0.2482117,0.1446196,-1.39536,0.3466454,-0.2020181,-10.238,-9.023874,-366,204,-130,-219,1507,1509,1730,-6.556948299999998,106.7336974
288,6,2,F450,17086,-4.0,1.33,-10.72,-5.74,183.47,183.72,0.11,0.07,0.4863827,0.002450705,0.5365741,7.85,9.524097,7,4,1.13,0.61,0.99,0.16,180,4,554944800,13,222.19,2.231,173.1198,0.2146104,0.1690082,-1.14664,-1.715368,0.2703373,-13.777029999999998,-12.82366,-400,84,-127,-215,1575,1499,1671,-6.5569523,106.7336971
289,6,2,F450,17096,-2.62,4.55,-12.64,-6.52,181.24,170.86,0.1,0.06,0.5094741,0.005030155,0.5365741,7.85,9.533348,6,9,1.13,0.61,0.99,0.14,220,4,554945000,13,222.16,2.484,179.3908,-0.05334054,-0.3280643,-0.8436948000000001,-0.6144755000000001,0.807353,-12.08579,-12.00109,-411,-21,-134,-206,1572,1608,1637,-6.5569567,106.7336965
290,6,2,F450,17106,-2.35,5.17,-14.08,-8.55,180.31,162.03,0.1,0.04,0.5135268,0.008045911999999999,0.5365741,7.85,9.536717,4,15,1.13,0.61,0.99,0.17,200,4,554945200,13,222.15,2.721,182.1402,0.03890203,-0.3425535,-0.5399286,-0.7148581999999999,-0.8191109000000001,-8.918905,-7.387352000000001,-406,-101,-118,-179,1598,1606,1629,-6.556961599999998,106.73369540000002
291,6,2,F450,17116,-3.05,3.91,-14.46,-9.74,179.48,157.04,0.08,0.04,0.5328857,0.009412467,0.5365741,7.85,9.525029,4,8,1.13,0.61,0.99,0.14,200,4,554945400,13,222.21,3.043,184.6058,-0.4368289000000001,-0.02308558,-0.2159639,-0.6357141,0.243082,-12.54255,-10.67137,-405,-150,-110,-165,1537,1662,1665,-6.556966900000001,106.7336946
292,6,2,F450,17126,-4.0,1.0,-14.22,-9.87,178.53,155.5,0.08,0.05,0.5153954000000001,0.007721305,0.5365741,7.85,9.510476,4,2,1.13,0.6,0.99,0.14,180,4,554945600,12,222.2,3.334,184.669,-0.08982162,0.02908999,0.05169741,-0.4636284000000001,0.1644477,-10.09883,-9.864152,-389,-159,-105,-179,1572,1609,1644,-6.5569728000000005,106.7336937
293,6,2,F450,17136,-4.62,-1.08,-13.72,-8.81,177.57,156.8,0.07,0.06,0.5124529000000001,0.006237566,0.5365741,7.85,9.494136,3,5,1.13,0.6,0.99,0.14,220,4,554945800,13,222.18,3.519,184.2136,-0.01076191,0.1238266,0.2118631,-0.4660934000000001,0.2257535,-10.01616,-8.958712,-395,-155,-117,-196,1563,1596,1654,-6.5569791,106.73369270000002
294,6,2,F450,17146,-5.1,-2.07,-13.37,-7.98,176.7,159.87,0.07,0.07,0.5348246,0.005779684,0.5365741,7.85,9.47296,4,8,1.13,0.6,1.0,0.12,200,4,554946000,13,222.21,3.544,183.6141,-0.05633496,0.1309387,0.3338316,-0.6975501999999999,-0.6914014,-9.921758,-9.544214,-386,-132,-129,-200,1561,1575,1663,-6.5569856,106.7336915
295,6,2,F450,17156,-5.62,-2.91,-13.15,-6.41,176.02,164.04,0.06,0.08,0.5513718000000001,0.004248261,0.5365741,7.85,9.446795,5,8,1.13,0.6,1.0,0.14,200,4,554946200,13,222.26,3.641,182.6515,-0.01267038,0.179695,0.4248598,-0.9439888,-0.1939898,-11.06324,-10.14093,-399,-110,-133,-212,1540,1574,1641,-6.556992200000002,106.7336902
296,6,2,F450,17166,-6.31,-3.15,-13.03,-5.54,175.51,168.93,0.07,0.09,0.5369768,0.00329107,0.5365741,7.85,9.429572,5,0,1.13,0.6,1.0,0.18,200,4,554946400,13,222.26,3.597,182.4082,0.005877105,0.04520055,0.4163388,-0.324564,-1.265691,-11.09704,-10.25789,-399,-80,-138,-223,1536,1548,1652,-6.556999,106.7336895
297,6,2,F450,17176,-7.18,-2.87,-13.11,-4.86,175.14,173.42,0.06,0.1,0.5308873000000001,0.002566636,0.5365736999999999,7.85,9.418863,4,1,1.13,0.6,1.0,0.18,200,4,554946600,13,222.31,3.675,180.9942,-0.16196570000000002,0.02918138,0.30364040000000003,0.1403041,0.1374392,-9.914959,-9.648032,-404,-51,-139,-225,1512,1535,1659,-6.5570058000000015,106.7336892
298,6,2,F450,17186,-8.01,-4.2,-13.23,-4.62,174.85,176.16,0.06,0.1,0.5583603,0.0033771990000000004,0.536624,7.85,9.408639,3,0,1.13,0.6,1.0,0.18,200,4,554946800,13,222.33,3.655,179.04,-0.1180306,0.04261483,0.1003461,-0.14285789999999998,0.1624846,-10.40745,-9.895035,-403,-23,-153,-230,1480,1558,1682,-6.557012599999998,106.7336889
299,6,2,F450,17196,-8.07,-4.86,-13.49,-5.33,174.63,176.97,0.06,0.09,0.5520819,0.0043815370000000005,0.5367529000000001,7.85,9.403638,2,-2,1.13,0.6,1.0,0.19,200,4,554947000,13,222.35,3.789,177.6623,0.04589407,-0.245118,-0.0586476,-0.4411818,0.3130817,-10.74866,-9.611361,-406,4,-147,-242,1490,1552,1683,-6.557019500000001,106.7336889
300,6,2,F450,17206,-7.21,-4.81,-13.43,-7.84,174.55,176.31,0.05,0.07,0.5651859,0.007421374,0.5367529000000001,7.85,9.403864,1,-2,1.13,0.6,1.0,0.14,200,4,554947200,13,222.41,4.033,176.108,-0.09863681,-0.343673,-0.1303152,0.5057533,-0.7396758000000001,-8.699444,-9.022062,-409,0,-135,-223,1535,1534,1688,-6.5570268,106.7336888
301,6,2,F450,17216,-5.47,-5.16,-12.56,-9.81,174.63,174.51,0.05,0.06,0.5543473000000001,0.01062483,0.5367529000000001,7.85,9.40248,0,0,1.13,0.6,1.0,0.15,180,4,554947400,13,222.43,4.0,175.2312,0.01120839,0.04789083,-0.16784229999999994,-0.9009104,0.05233613,-10.00276,-9.607881,-417,-10,-105,-200,1530,1579,1698,-6.5570342,106.7336888
302,6,2,F450,17226,-3.44,-2.82,-11.08,-8.57,174.89,172.41,0.04,0.05,0.5510046999999999,0.007109523,0.5367529000000001,7.85,9.403772,-1,2,1.13,0.6,1.0,0.13,200,4,554947600,13,222.44,4.134,174.9143,0.268221,0.33594270000000004,-0.155114,-1.381118,-0.5416759,-9.767711,-9.119141,-427,-26,-120,-202,1526,1591,1670,-6.5570417,106.73368909999998
303,6,2,F450,17236,-2.23,-0.19,-10.28,-5.12,175.24,170.74,0.06,0.05,0.5020106,0.002084374,0.5367529000000001,7.85,9.406005,-3,5,1.13,0.6,1.01,0.17,220,4,554947800,13,222.46,3.984,174.6585,0.08455627,0.24778200000000006,-0.1300482,-0.7975017,-0.3825452,-11.97969,-11.11889,-411,-50,-132,-218,1521,1580,1618,-6.5570491,106.7336896
304,6,2,F450,17246,-2.04,0.16,-11.17,-2.46,175.58,169.79,0.06,0.05,0.4855577,0.00050804,0.5359965,7.85,9.420632,-6,13,1.13,0.6,1.01,0.16,180,4,554948000,13,222.54,4.027,174.8352,-0.17191170000000006,0.02520306,-0.0394997,-1.051359,-0.7227232,-10.99729,-10.54471,-397,-55,-159,-221,1475,1585,1587,-6.5570565,106.73369
305,6,2,F450,17256,-2.02,-0.72,-13.36,-2.91,175.85,169.92,0.06,0.06,0.4943259,0.0006592869999999999,0.5346820999999999,7.85,9.452668,-11,4,1.13,0.59,1.0,0.12,220,4,554948200,13,222.64,4.039,175.7923,0.2621815,-0.3376341,0.04507578,-0.05616809,-0.1080229,-8.904377,-8.749193,-394,-63,-162,-233,1457,1569,1567,-6.557063900000001,106.7336903
306,6,2,F450,17266,-1.92,-0.59,-15.53,-7.07,176.05,170.45,0.06,0.06,0.4618496,0.003515542,0.5338128000000001,7.85,9.505891,-18,-4,1.13,0.59,1.0,0.12,200,4,554948400,13,222.62,3.908,174.2612,-0.170613,-0.3699032,-0.0139132,-0.9644214,-0.8306924000000001,-10.71137,-9.603641,-400,-56,-158,-211,1484,1527,1589,-6.5570712,106.7336902
307,6,2,F450,17276,-1.09,-2.76,-16.16,-11.47,176.22,170.5,0.06,0.07,0.4417803,0.009544343,0.5338128000000001,7.85,9.56277,-25,-12,1.13,0.59,1.0,0.1,180,4,554948600,13,222.66,4.13,173.65400000000002,0.2717372,-0.142847,0.02858381,-0.9054073,-0.8262584999999999,-9.281311,-8.352475,-416,-53,-125,-176,1403,1592,1622,-6.5570787,106.7336903
308,6,2,F450,17286,0.19,-0.65,-14.99,-12.33,176.44,171.48,0.07,0.07,0.4971265,0.01187563,0.5338128000000001,7.85,9.594823,-30,-20,1.13,0.59,1.0,0.13,220,4,554948800,13,222.65,4.103,173.4374,0.3550515,0.311701,0.12933419999999998,-0.7735255999999999,-0.2203452,-10.38675,-9.504101,-419,-50,-109,-165,1486,1540,1604,-6.5570863,106.7336908
309,6,2,F450,17296,0.6,1.62,-13.83,-8.48,176.72,173.18,0.06,0.07,0.4820985,0.00554952,0.5338128000000001,7.85,9.603673,-32,-29,1.13,0.59,1.0,0.19,180,4,554949000,13,222.58,4.225,173.15900000000005,-0.09850701,0.3730149,0.1401723,-1.111548,-0.07442619,-9.462276,-8.660981,-414,-49,-115,-186,1406,1597,1619,-6.5570939,106.7336915
310,6,2,F450,17306,-0.11,1.52,-13.94,-4.96,176.99,175.18,0.07,0.08,0.4686177,0.001869977,0.5338128000000001,7.85,9.596071,-33,-36,1.13,0.59,1.0,0.13,220,4,554949200,13,222.6,3.991,174.3065,0.1339096,0.2052034,0.1970251,-2.518911,-0.9072987,-8.94174,-8.836758,-408,-37,-138,-205,1426,1562,1564,-6.557101400000001,106.7336919
311,6,2,F450,17316,-1.29,1.89,-15.59,-3.9,177.19,177.39,0.06,0.08,0.4841891,0.001371711,0.5326583,7.85,9.601097,-35,-38,1.13,0.58,1.0,0.12,200,4,554949400,13,222.45,4.025,173.9702,-0.01884391,-0.05128849,0.2045296,-2.2482450000000003,-0.1095936,-11.10092,-11.31968,-396,-24,-152,-230,1421,1558,1587,-6.5571085999999985,106.7336922
312,6,2,F450,17326,-2.62,1.72,-17.34,-6.46,177.32,179.06,0.06,0.09,0.4826272,0.003302962,0.5321030999999999,7.85,9.631063,-40,-42,1.13,0.58,1.0,0.12,180,4,554949600,13,222.27,3.878,174.6077,-0.2107779,-0.1891831,0.1406002,-0.7616963999999999,-1.298993,-10.13466,-9.231037,-408,-17,-146,-220,1404,1567,1602,-6.557115799999999,106.7336925
313,6,2,F450,17336,-3.7,-0.96,-18.15,-9.51,177.37,180.12,0.07,0.09,0.5240064,0.007523179,0.5321030999999999,7.85,9.643296,-42,-45,1.19,0.58,1.0,0.2,200,4,554949800,12,222.21,3.9,175.7915,-0.1901941,-0.2257409,0.06204599,-0.3846599,-0.2035764,-10.26543,-9.129502,-415,4,-135,-202,1448,1548,1646,-6.557123,106.7336926
314,6,2,F450,17346,-3.6,-2.73,-17.71,-12.1,177.41,181.0,0.07,0.09,0.543586,0.01294553,0.5321030999999999,7.85,9.624383,-42,-51,1.13,0.58,0.99,0.14,220,4,554950000,13,222.16,4.319,175.5588,-0.05161358,-0.1118599,0.07632079,-2.43321,-0.3712228,-12.17671,-12.0696,-425,20,-98,-183,1465,1542,1666,-6.5571307,106.7336928
315,6,2,F450,17356,-2.67,-1.25,-16.25,-13.47,177.5,181.64,0.07,0.08,0.5014804,0.01410764,0.5321030999999999,7.85,9.614072,-42,-53,1.13,0.58,1.0,0.21,200,4,554950200,13,222.15,4.426,174.8527,-0.08117136,-0.009404931,-0.00497055,-1.370336,0.1413121,-10.05106,-9.117769,-441,28,-86,-178,1473,1543,1654,-6.5571387,106.73369309999998
316,6,2,F450,17366,-2.24,-0.4,-14.17,-12.87,177.61,181.17,0.07,0.07,0.5208581,0.0131557,0.5321030999999999,7.85,9.594218,-40,-52,1.13,0.58,0.99,0.17,180,4,554950400,13,222.1,4.955,173.3127,-0.0540164,0.1399144,-0.07056817,-0.9947312,-0.6552606,-10.54687,-10.9045,-434,24,-88,-189,1493,1552,1659,-6.557147200000001,106.7336937
317,6,2,F450,17376,-2.1,-1.01,-12.04,-10.99,177.72,180.01,0.07,0.07,0.5105890999999999,0.009585559,0.5321030999999999,7.85,9.580005,-39,-41,1.13,0.58,1.0,0.16,200,4,554950600,13,222.02,4.552,174.96200000000005,0.1366259,0.04776835,-0.1267131,-0.4922381,0.20808920000000006,-9.177324,-8.899433,-424,9,-98,-182,1466,1569,1635,-6.5571558,106.7336942
318,6,2,F450,17386,-1.83,-0.37,-10.35,-9.89,177.86,178.55,0.1,0.07,0.496414,0.007558346,0.5321030999999999,7.85,9.565506,-37,-31,1.13,0.58,1.0,0.17,200,4,554950800,13,222.0,4.681,174.7756,-0.1306687,0.1147945,-0.1680494,-1.849061,-0.7779586,-9.918131,-9.533845,-425,6,-111,-191,1489,1551,1623,-6.557164200000001,106.7336945
319,6,2,F450,17396,-1.23,-0.38,-8.91,-8.8,178.04,176.71,0.14,0.06,0.496995,0.005889952,0.5321030999999999,7.85,9.542693,-35,-33,1.13,0.58,1.0,0.14,200,4,554951000,13,221.92,4.842,175.2411,0.2897652,0.1061482,-0.1502808,-1.137412,-0.04088515,-9.684415,-9.316465,-425,-10,-123,-199,1487,1563,1615,-6.5571728,106.733695
320,6,2,F450,17406,-1.16,1.4,-8.02,-7.63,178.18,175.32,0.12,0.06,0.4798059,0.004386634,0.5321030999999999,7.85,9.522023,-33,-33,1.13,0.58,1.01,0.21,220,4,554951200,13,221.95,4.905,177.2872,0.1053435,0.0603909,-0.111195,-1.006799,-0.2319321,-9.120993,-9.262088,-411,-22,-132,-194,1483,1570,1580,-6.5571818,106.7336952
321,6,2,F450,17416,-1.83,1.02,-7.64,-6.91,178.29,174.05,0.11,0.06,0.486528,0.00364399,0.5321030999999999,7.85,9.50182,-32,-26,1.13,0.58,1.01,0.16,180,4,554951400,13,221.9,4.878,177.6002,-0.3193315,-0.04060936,-0.09783795,0.05497986,0.06221708,-9.51206,-9.548076,-408,-35,-137,-217,1489,1572,1589,-6.5571907000000005,106.733695
322,6,2,F450,17426,-2.45,-2.19,-7.48,-7.53,178.31,172.71,0.1,0.07,0.5036560999999999,0.004829705,0.5321030999999999,7.85,9.479662,-30,-25,1.13,0.58,1.01,0.13,220,4,554951600,13,221.79,4.845,176.4991,-0.1215239,-0.04725086,-0.08354868,-0.9228888,-0.2450762,-11.1824,-10.36921,-410,-40,-141,-209,1470,1599,1614,-6.5571993000000015,106.73369540000002
323,6,2,F450,17436,-2.08,-3.25,-7.06,-7.99,178.26,171.92,0.09,0.07,0.4719823,0.005522251,0.5321030999999999,7.85,9.465151,-29,-21,1.13,0.58,1.02,0.18,180,4,554951800,13,221.85,4.561,176.6821,0.02784572,0.06992137,-0.02348935,-1.693268,-1.065224,-9.437475,-8.766249,-407,-37,-137,-196,1518,1561,1590,-6.557208,106.7336957
324,6,2,F450,17446,-1.03,-1.95,-6.34,-7.07,178.26,171.81,0.09,0.06,0.4968872,0.004267514,0.5321030999999999,7.85,9.441588,-27,-23,1.13,0.58,1.02,0.14,220,4,554952000,13,221.72,4.745,175.7099,0.04551312,0.09312144,0.07031856,-1.487102,-0.6164696999999999,-10.88558,-10.77372,-407,-35,-137,-209,1482,1589,1592,-6.5572163,106.7336962
325,6,2,F450,17456,0.01,-0.58,-6.02,-6.27,178.39,172.79,0.12,0.07,0.5028983,0.003077924,0.5321030999999999,7.85,9.404802,-23,-22,1.13,0.58,1.02,0.15,200,4,554952200,13,221.71,4.645,175.3728,-0.01405055,0.10581680000000003,0.1325781,-1.2999969999999998,0.1270752,-10.63523,-10.36127,-412,-43,-148,-215,1490,1579,1601,-6.557224900000001,106.7336975
326,6,2,F450,17466,0.25,-0.25,-6.52,-5.02,178.59,174.22,0.11,0.07,0.4791321,0.001834601,0.5321030999999999,7.85,9.364094,-19,-20,1.13,0.58,1.03,0.19,200,4,554952400,13,221.69,4.5760000000000005,175.4265,0.1090319,0.07188112,0.1271423,-1.0521040000000002,0.4046908,-11.331,-11.00926,-402,-36,-161,-216,1463,1583,1587,-6.5572332,106.7336986
327,6,2,F450,17476,0.33,0.32,-7.7,-3.96,178.81,175.92,0.1,0.07,0.4653776,0.001101106,0.5310568,7.85,9.336766,-17,-12,1.13,0.58,1.03,0.14,200,4,554952600,13,221.6,4.506,176.6908,0.15656879999999998,-0.1127335,0.2098018,-0.7943243000000001,-0.389284,-9.48877,-10.0833,-402,-23,-155,-227,1454,1548,1579,-6.5572412,106.733699
328,6,2,F450,17486,-0.12,1.78,-9.45,-5.15,179.02,177.95,0.09,0.07,0.4804586,0.002203435,0.5298437,7.85,9.334174,-17,-14,1.13,0.58,1.03,0.23,200,4,554952800,13,221.54,4.402,177.0332,-0.1716498,-0.1360139,0.1768095,-0.5301967,0.4122805000000001,-7.789139,-7.026662,-403,-11,-151,-225,1396,1581,1593,-6.5572493000000005,106.7336995
329,6,2,F450,17496,-0.7,-1.16,-10.87,-6.11,179.19,180.09,0.09,0.08,0.4693092,0.002743483,0.5297894000000001,7.85,9.337202,-17,-13,1.13,0.58,1.03,0.12,200,4,554953000,13,221.44,4.288,176.6875,0.01876081,-0.09505558,0.16920439999999998,0.2194764,0.8792871999999999,-7.974925,-7.620916,-403,-1,-152,-215,1390,1567,1573,-6.557257099999998,106.73370020000002
330,6,2,F450,17506,-1.18,1.33,-11.71,-7.43,179.3,181.88,0.08,0.07,0.5096442,0.004396498,0.5297894000000001,7.85,9.340502,-18,-21,1.13,0.58,1.03,0.12,180,4,554953200,13,221.33,4.4460000000000015,177.5724,0.2543366,-0.17761110000000002,0.127467,-0.696593,-0.7111204000000001,-8.615902,-9.153818,-407,22,-142,-210,1418,1551,1622,-6.557264900000002,106.7337006
331,6,2,F450,17516,-2.34,1.91,-11.98,-9.81,179.36,182.92,0.07,0.07,0.5313293,0.008155882,0.5297894000000001,7.85,9.329988,-17,-31,1.13,0.58,1.03,0.21,220,4,554953400,13,221.36,4.351,177.7705,-0.3188603,-0.15414270000000002,0.01758704,-1.470397,0.5960659,-10.57626,-9.841181,-413,23,-127,-201,1446,1532,1613,-6.557272900000001,106.7337012
332,6,2,F450,17526,-3.85,-0.95,-11.4,-10.85,179.36,182.78,0.09,0.07,0.5350583000000001,0.0098719,0.5297894000000001,7.85,9.29823,-14,-28,1.13,0.58,1.03,0.11,200,4,554953600,13,221.28,4.526,179.0444,-0.3668091,0.1059829,-0.0632403,-0.9843127,0.16178399999999998,-8.410948,-9.438334,-430,29,-113,-193,1469,1564,1643,-6.557280900000001,106.7337012
333,6,2,F450,17536,-4.04,-3.24,-10.32,-8.89,179.31,182.02,0.08,0.07,0.5553634,0.007759094,0.5297894000000001,7.85,9.271878,-12,-19,1.13,0.58,1.03,0.14,200,4,554953800,13,221.2,4.582,179.1375,0.02283041,0.08519132,-0.06460065,-0.9719465,0.11043010000000003,-9.39794,-9.843391,-421,31,-112,-202,1475,1543,1611,-6.5572892000000005,106.7337016
334,6,2,F450,17546,-2.86,-2.54,-10.04,-7.53,179.32,181.4,0.08,0.06,0.5327149,0.005262136,0.5297894000000001,7.85,9.254137,-10,-20,1.13,0.57,1.03,0.13,200,4,554954000,13,221.08,4.453,176.7318,-0.05875768,-0.03129192,-0.02040147,0.1394467,-0.5927730999999999,-9.579645,-9.051063,-417,25,-125,-213,1439,1609,1641,-6.5572974,106.7337022
335,6,2,F450,17556,-1.59,-1.6,-10.18,-8.16,179.4,181.17,0.06,0.06,0.5083978,0.005198002,0.5297894000000001,7.85,9.238707000000002,-9,-19,1.13,0.57,1.03,0.15,200,4,554954200,13,221.0,4.474,177.3617,0.075008,0.05744990000000001,0.02289693,0.1763708,-0.12727339999999998,-9.259312,-7.834863,-411,23,-138,-211,1471,1588,1656,-6.557305499999999,106.7337024
336,6,2,F450,17566,-0.75,-0.89,-10.13,-7.65,179.55,181.15,0.08,0.06,0.5161977,0.004773438,0.5297894000000001,7.85,9.234908,-9,-2,1.13,0.57,1.03,0.13,200,4,554954400,13,220.93,4.541,177.5824,0.1898834,-0.11854080000000003,-0.03731591,-0.9542311,-0.1918561,-11.0297,-10.87821,-408,18,-127,-212,1469,1538,1594,-6.5573137,106.7337027
337,6,2,F450,17576,-0.44,0.83,-10.16,-8.62,179.79,180.71,0.08,0.06,0.498716,0.005725116,0.5297894000000001,7.85,9.233749,-9,-2,1.13,0.57,1.03,0.16,200,4,554954600,13,220.9,4.445,177.8468,-0.2294739,-0.05594883,-0.07706757,-0.9387686,0.2540731,-10.33745,-9.340307,-412,13,-129,-209,1479,1555,1603,-6.557322,106.7337032
338,6,2,F450,17586,-0.61,-1.23,-9.93,-9.84,180.0,179.58,0.07,0.06,0.4689715999999999,0.00697574,0.5297894000000001,7.85,9.237195,-9,-3,1.13,0.57,1.03,0.15,200,4,554954800,13,220.86,4.54,178.0501,-0.2313387,-0.1853363,-0.08223104,-1.729769,-0.02151399,-9.812056,-9.529098,-414,9,-121,-211,1460,1565,1611,-6.557330099999999,106.73370359999998
339,6,2,F450,17596,-0.34,-1.33,-8.98,-11.15,180.17,178.48,0.07,0.06,0.5140499,0.01026076,0.5297894000000001,7.85,9.243993,-10,0,1.13,0.57,1.02,0.12,200,4,554955000,13,220.86,4.557,177.6522,-0.01351899,-0.1362156,-0.09023248,-1.556403,-0.2939696,-9.502222,-9.529795,-417,6,-112,-184,1500,1545,1610,-6.5573383000000005,106.733704
340,6,2,F450,17606,0.08,-1.35,-7.23,-10.28,180.34,177.43,0.06,0.06,0.4793199000000001,0.008113056,0.5297894000000001,7.85,9.246293,-11,-2,1.13,0.57,1.02,0.12,200,4,554955200,13,220.89,4.485,177.3402,-0.1767961,0.2870942,-0.09833941,-1.687296,-0.6803672,-10.69676,-10.80571,-424,0,-101,-188,1482,1571,1595,-6.5573465,106.73370420000002
341,6,2,F450,17616,0.87,-1.5,-5.64,-6.69,180.54,176.78,0.05,0.06,0.4443345,0.003270984,0.5297894000000001,7.85,9.241082,-10,-3,1.13,0.56,1.02,0.15,200,4,554955400,13,220.93,4.41,177.2771,-0.03890513,0.1903633,-0.04430296,-1.331947,0.2098694,-11.61213,-11.67759,-417,-6,-127,-210,1473,1560,1599,-6.5573546,106.7337043
342,6,2,F450,17626,1.89,-0.59,-5.13,-5.24,180.82,176.06,0.06,0.06,0.4598626,0.001874775,0.5297894000000001,7.85,9.237867,-10,-8,1.13,0.56,1.02,0.18,200,4,554955600,13,220.94,4.2810000000000015,175.9911,-0.2061099,0.1354471,-0.05237669,-1.508934,0.17175639999999998,-10.14893,-10.076,-407,-16,-138,-214,1423,1606,1581,-6.5573624000000015,106.73370459999998
343,6,2,F450,17636,3.16,-1.73,-5.09,-5.33,181.19,176.04,0.05,0.06,0.4536788,0.002141565,0.528787,7.85,9.246137,-11,-5,1.13,0.56,1.02,0.13,200,4,554955800,13,220.9,4.262,174.68099999999995,0.16434179999999998,-0.2086559,0.08399531,-1.656005,-0.8200648000000001,-9.450043,-8.891906,-392,-15,-151,-225,1447,1580,1600,-6.5573701,106.7337053
344,6,2,F450,17646,4.67,0.01,-4.4,-7.4,181.68,177.6,0.04,0.07,0.4860323,0.004028201,0.528787,7.85,9.254453,-12,-9,1.13,0.56,1.02,0.11,180,4,554956000,13,220.86,4.045,174.7305,0.4118972,0.1014395,0.2009431,-1.265555,0.10028610000000003,-9.231627,-8.721279,-412,-16,-138,-220,1465,1549,1621,-6.5573776,106.733706
345,6,2,F450,17656,5.51,4.09,-2.87,-5.46,182.34,180.53,0.04,0.08,0.472808,0.0034202340000000003,0.528787,7.85,9.257698,-12,-14,1.13,0.56,1.02,0.11,220,4,554956200,13,220.89,3.9,175.8066,0.402083,0.5204806,0.2738201,-0.3384394,-0.5994146,-9.031122,-8.213108,-415,-7,-131,-207,1425,1573,1602,-6.5573849000000015,106.7337066
346,6,2,F450,17666,4.53,6.83,-1.72,0.03,183.1,184.32,0.05,0.08,0.5143837,0.003629982,0.5285888000000001,7.85,9.249917,-12,-15,1.13,0.56,1.02,0.14,200,4,554956400,13,220.88,3.71,177.5915,-0.1194546,0.2604692,0.2329536,-1.964271,-0.893598,-10.07905,-9.752944,-391,4,-165,-249,1425,1563,1609,-6.5573918,106.7337065
347,6,2,F450,17676,2.46,5.11,-2.12,1.17,183.76,187.15,0.05,0.09,0.5387022,0.0023299460000000003,0.5285888000000001,7.85,9.224418,-9,-22,1.13,0.56,1.02,0.15,200,4,554956600,13,220.84,3.215,179.1502,-0.238658,-0.1724943,0.1829473,-0.9081488,0.5205653,-10.05819,-11.07647,-380,21,-196,-269,1364,1577,1593,-6.5573981,106.7337066
348,6,2,F450,17686,0.73,3.09,-2.9,-0.08,184.19,188.96,0.04,0.09,0.5670276999999999,0.000823736,0.5288562,7.85,9.1861,-6,-25,1.13,0.56,1.02,0.14,200,4,554956800,13,220.84,3.239,180.8599,0.03815433,-0.1147479,0.15190479999999998,-1.066998,-0.7608557,-11.19712,-10.03609,-376,47,-187,-258,1394,1527,1592,-6.5574040999999985,106.7337062
349,6,2,F450,17696,-0.66,3.99,-2.68,-1.97,184.35,190.26,0.06,0.09,0.6812291,0.0020809170000000003,0.5300239999999999,7.85,9.128732,-1,-34,1.13,0.55,1.03,0.13,200,4,554957000,13,220.74,2.995,183.8155,-0.04863774,-0.03755289,0.04895339,-0.1992269,-1.4845469999999998,-10.37657,-8.832602,-391,60,-185,-258,1449,1521,1642,-6.557409700000001,106.73370590000002
350,6,2,F450,17706,-2.45,1.82,-1.27,-3.73,184.19,190.56,0.07,0.09,0.6663393,0.001754642,0.5324836,7.85,9.042816,7,-44,1.13,0.55,1.03,0.15,200,4,554957200,13,220.62,2.991,183.9498,-0.3066483,0.02772383,-0.04744044,-0.8635769,0.4994413,-10.85895,-10.48074,-389,66,-171,-248,1511,1469,1650,-6.5574151,106.7337053
351,6,2,F450,17716,-3.96,-1.55,0.89,-2.65,183.69,189.86,0.08,0.07,0.6989791,0.000994742,0.5354392,7.85,8.940918,16,-45,1.13,0.55,1.03,0.14,200,4,554957400,13,220.48,2.8760000000000003,185.4024,-0.155932,0.08632416,-0.1254908,-1.773319,0.4920384,-12.16471,-12.91383,-386,82,-164,-245,1445,1468,1587,-6.5574204,106.73370459999998
352,6,2,F450,17726,-4.7,-1.82,2.8,-0.82,182.83,188.08,0.1,0.06,0.7257604999999999,0.000482261,0.5390807,7.85,8.785466,32,-45,1.13,0.55,1.03,0.14,200,4,554957600,13,220.32,2.451,187.3365,0.06477699,0.21417020000000006,-0.2398061,-0.4809812,0.7475851,-10.16296,-8.873609,-384,79,-162,-259,1477,1502,1617,-6.557425099999999,106.7337039
353,6,2,F450,17736,-5.27,-2.46,4.04,0.87,181.77,185.12,0.1,0.05,0.8090956,0.0007754560000000001,0.5436513000000001,7.85,8.599316,50,-45,1.13,0.55,1.03,0.14,200,4,554957800,13,220.31,2.355,187.335,-0.1832655,0.0786293,-0.2617988,-1.630968,0.4728404000000001,-12.12311,-11.25191,-386,64,-190,-270,1543,1573,1689,-6.5574295,106.7337033
354,6,2,F450,17746,-5.93,-3.53,4.65,0.82,180.37,182.15,0.11,0.05,0.8417210999999999,0.001643062,0.5490713,7.85,8.403372000000001,69,-42,1.13,0.55,1.03,0.13,200,4,554958000,13,220.3,2.106,187.2211,-0.03360232,0.05916009,-0.2331199,-0.9661751,0.1154647,-12.491,-12.19913,-378,43,-188,-266,1528,1580,1662,-6.5574336,106.7337027
355,6,2,F450,17756,-6.64,-3.36,5.08,0.68,178.56,179.5,0.09,0.05,0.8466790999999999,0.001540124,0.5550243,7.85,8.225925,87,-37,1.13,0.55,1.03,0.15,200,4,554958200,13,220.29,2.1180000000000003,185.9579,-0.05644235,-0.05635355,-0.2264187,-0.9525322,-0.7048239000000001,-11.03679,-10.85207,-384,18,-182,-278,1531,1552,1635,-6.5574375,106.7337024
356,6,2,F450,17766,-7.15,-5.1,5.8,0.42,176.99,177.12,0.08,0.04,0.8211054,0.003388345,0.5611531999999999,7.85,8.081539,101,-25,1.32,0.55,1.03,0.12,200,4,554958400,12,220.31,1.743,186.1113,-0.1123037,0.01557743,-0.1553531,-0.7869319,1.237855,-12.54182,-11.68166,-388,17,-186,-279,1544,1573,1652,-6.557441099999999,106.7337022
357,6,2,F450,17776,-6.81,-6.27,6.93,0.76,176.54,175.31,0.08,0.04,0.802078,0.0048795340000000005,0.5611531999999999,7.85,7.978285,110,3,1.13,0.55,1.03,0.12,180,4,554958600,13,220.34,1.578,182.5532,-0.02207058,0.0221052,-0.04050032,-0.4784409000000001,-0.04144411,-10.63282,-10.5847,-386,5,-186,-277,1604,1607,1701,-6.557444099999999,106.733702
358,6,2,F450,17786,-5.36,-6.15,8.9,1.08,176.42,175.26,0.09,0.04,0.7248815,0.004235685,0.5611531999999999,7.85,7.937036999999999,114,28,1.13,0.55,1.03,0.19,220,4,554958800,13,220.41,1.331,180.9535,0.08496715,0.1568765,0.09940294,0.1256023,-0.1931332,-11.34389,-11.01011,-383,2,-190,-290,1589,1607,1696,-6.557446799999999,106.7337021
359,6,2,F450,17796,-3.3,-4.29,10.7,2.12,176.39,176.59,0.08,0.05,0.6728665,0.002378821,0.5617266,7.85,7.949219,113,52,1.13,0.55,1.03,0.22,200,4,554959000,13,220.51,1.014,182.3679,0.2018802,-0.06069025,0.1868061,-0.6210878000000001,1.0097,-11.11906,-10.79119,-378,-1,-189,-295,1606,1568,1711,-6.5574489,106.7337019
360,6,2,F450,17806,-1.35,-1.21,12.02,1.7,176.38,178.84,0.08,0.04,0.6180270999999999,0.000433922,0.5633724,7.85,8.006696,108,68,1.13,0.55,1.03,0.25,200,4,554959200,13,220.67,0.9950001,181.2702,0.1370804,-0.02478823,0.1964211,0.3861346,0.07320273,-10.69077,-11.01093,-380,11,-195,-293,1610,1536,1738,-6.5574507,106.733702
361,6,2,F450,17816,-0.81,1.15,12.96,3.02,176.38,181.1,0.09,0.05,0.611386,0.000984788,0.5633724,7.85,8.083005,100,72,1.13,0.55,1.03,0.23,200,4,554959400,13,220.84,0.8200001,177.5558,-0.14078929999999998,0.03836279,0.06757389,-0.2022505,0.2982518,-10.53267,-9.426685,-372,6,-202,-292,1546,1476,1674,-6.557452400000002,106.7337022
362,6,2,F450,17826,-1.82,-0.63,13.3,2.69,176.38,181.65,0.09,0.06,0.5664538,0.000619412,0.5633724,7.85,8.178961,91,85,1.13,0.55,1.03,0.29,200,4,554959600,13,221.04,0.594,184.5685,-0.246837,-0.1238336,-0.004298695,0.4862838,0.6162744000000001,-10.88787,-9.928961,-383,18,-205,-293,1570,1524,1736,-6.5574538,106.7337021
363,6,2,F450,17836,-2.86,-2.6,13.82,2.64,176.38,181.15,0.09,0.06,0.5512557,0.001105726,0.5633724,7.85,8.281239999999999,80,81,1.13,0.55,1.03,0.3,200,4,554959800,13,221.22,0.295,185.6002,-0.1598022,0.2863225,-0.01792958,0.8273417,-0.07431635,-9.311412,-9.204806,-374,22,-200,-290,1567,1495,1716,-6.5574546,106.7337019
364,6,2,F450,17846,-2.92,-3.89,14.14,5.31,176.38,180.61,0.09,0.06,0.5432428,0.003522098,0.5633724,7.85,8.372066,71,76,1.13,0.55,1.03,0.27,180,4,554960000,13,221.3,0.409,148.9133,-0.02973991,0.09199741,-0.01115962,0.4518647,0.5695262,-9.430409,-9.985459,-364,29,-199,-296,1544,1518,1693,-6.5574550999999985,106.7337021
365,6,2,F450,17856,-2.61,-3.19,13.19,5.83,176.38,180.47,0.09,0.05,0.5336772,0.003639162,0.5633724,7.85,8.450555,63,68,1.13,0.55,1.03,0.28,220,4,554960200,13,221.37,0.406,145.6101,0.1623378,-0.07237486,0.08713878,0.7912300999999999,-0.4311097,-9.048874,-8.83808,-356,34,-217,-317,1500,1555,1682,-6.5574556,106.7337026
